;content of D:\data\result\mecham\???\20231225-89741\600-02.raw - (Diffrac Plus V4 file)
_FILEVERSION = 3
_SAMPLE
_+SAMPLE
_USER = Lab Manager
_GONIOMETER_CODE = 21
_STAGE_CODE = 7
; Goniometer : D8 theta/theta, stage : Chi drive
_SAMPLE_CHANGER_CODE = 0
_ATTACHMENTS_CODE = 0
_GONIOMETER_RADIUS = 280
_MONOCHROMATOR = 0
; Incident beam monochromator : None
_BETA_FILTER = N
_ANALYZER_CODE = 0
; Received beam analyzer : None
_DATEMEASURED = 25-Dec-2023 10:24:13
_RUNTIME = 11.18869
_WL_UNIT = A
_WL1 = 1.5406
_WL2 = 1.54439
_WL3 = 1.39222
_WLRATIO = 0.5
_ANODE = Cu
_V4_INF_USER = Lab Manager
_V4_INF_CREATOR = V5Converter
_V4_INF_CREATOR_VERSION = 4.4.16.0

; Data for range 1
_DRIVE = COUPLED
_STEPTIME = 57.6
_STEPSIZE = 0.019721
_STEPMODE = C
_START = 20
_THETA = 10
_2THETA = 20
_KHI = 0
_PHI = 0
_DETECTORSLIT = out
_AUX1 = 0
_TIMESTARTED = 0
_KV = 40
_MA = 40
_RANGE_WL = 1.5406
_3DPLANE = 0
_V4_PSD2THETA = 9999
_V4_PSDCHANNEL1 = 0
_V4_PSDAPERTURE = 2.839876
_V4_PSDTYPE = 5
_V4_PSDFIXED = 0
_V4_COUNTERS_MASK = 1
_V4_DRIVES_MASK = 0
_V4_ENCODERS_MASK = 0
_2THETACOUNTS = 1
; 2THETA	Cnt2_D1	
20.000000	551.000000	
20.019721	560.000000	
20.039443	502.000000	
20.059164	531.000000	
20.078885	557.000000	
20.098607	498.000000	
20.118328	579.000000	
20.138050	589.000000	
20.157771	555.000000	
20.177492	558.000000	
20.197214	575.000000	
20.216935	551.000000	
20.236656	551.000000	
20.256378	517.000000	
20.276099	526.000000	
20.295820	530.000000	
20.315542	556.000000	
20.335263	587.000000	
20.354985	553.000000	
20.374706	540.000000	
20.394427	539.000000	
20.414149	500.000000	
20.433870	565.000000	
20.453591	580.000000	
20.473313	534.000000	
20.493034	548.000000	
20.512755	517.000000	
20.532477	538.000000	
20.552198	562.000000	
20.571920	556.000000	
20.591641	557.000000	
20.611362	504.000000	
20.631084	587.000000	
20.650805	488.000000	
20.670526	546.000000	
20.690248	541.000000	
20.709969	533.000000	
20.729690	563.000000	
20.749412	539.000000	
20.769133	560.000000	
20.788855	553.000000	
20.808576	525.000000	
20.828297	563.000000	
20.848019	571.000000	
20.867740	585.000000	
20.887461	582.000000	
20.907183	528.000000	
20.926904	551.000000	
20.946625	541.000000	
20.966347	565.000000	
20.986068	555.000000	
21.005790	535.000000	
21.025511	534.000000	
21.045232	539.000000	
21.064954	503.000000	
21.084675	587.000000	
21.104396	547.000000	
21.124118	536.000000	
21.143839	559.000000	
21.163560	572.000000	
21.183282	544.000000	
21.203003	517.000000	
21.222725	525.000000	
21.242446	566.000000	
21.262167	562.000000	
21.281889	530.000000	
21.301610	555.000000	
21.321331	503.000000	
21.341053	552.000000	
21.360774	574.000000	
21.380495	527.000000	
21.400217	541.000000	
21.419938	511.000000	
21.439660	558.000000	
21.459381	548.000000	
21.479102	535.000000	
21.498824	557.000000	
21.518545	523.000000	
21.538266	558.000000	
21.557988	549.000000	
21.577709	497.000000	
21.597430	552.000000	
21.617152	535.000000	
21.636873	543.000000	
21.656595	544.000000	
21.676316	553.000000	
21.696037	589.000000	
21.715759	531.000000	
21.735480	543.000000	
21.755201	564.000000	
21.774923	557.000000	
21.794644	585.000000	
21.814365	531.000000	
21.834087	546.000000	
21.853808	548.000000	
21.873530	579.000000	
21.893251	517.000000	
21.912972	568.000000	
21.932694	573.000000	
21.952415	571.000000	
21.972136	537.000000	
21.991858	559.000000	
22.011579	546.000000	
22.031300	562.000000	
22.051022	539.000000	
22.070743	595.000000	
22.090465	544.000000	
22.110186	525.000000	
22.129907	548.000000	
22.149629	503.000000	
22.169350	539.000000	
22.189071	523.000000	
22.208793	532.000000	
22.228514	557.000000	
22.248235	563.000000	
22.267957	559.000000	
22.287678	519.000000	
22.307400	487.000000	
22.327121	560.000000	
22.346842	562.000000	
22.366564	570.000000	
22.386285	579.000000	
22.406006	564.000000	
22.425728	520.000000	
22.445449	578.000000	
22.465170	572.000000	
22.484892	526.000000	
22.504613	526.000000	
22.524335	544.000000	
22.544056	574.000000	
22.563777	577.000000	
22.583499	507.000000	
22.603220	527.000000	
22.622941	541.000000	
22.642663	608.000000	
22.662384	563.000000	
22.682105	502.000000	
22.701827	596.000000	
22.721548	545.000000	
22.741270	561.000000	
22.760991	552.000000	
22.780712	528.000000	
22.800434	546.000000	
22.820155	551.000000	
22.839876	553.000000	
22.859598	526.000000	
22.879319	550.000000	
22.899040	533.000000	
22.918762	535.000000	
22.938483	551.000000	
22.958205	556.000000	
22.977926	532.000000	
22.997647	583.000000	
23.017369	550.000000	
23.037090	537.000000	
23.056811	531.000000	
23.076533	520.000000	
23.096254	528.000000	
23.115975	553.000000	
23.135697	539.000000	
23.155418	546.000000	
23.175140	558.000000	
23.194861	495.000000	
23.214582	558.000000	
23.234304	503.000000	
23.254025	551.000000	
23.273746	519.000000	
23.293468	596.000000	
23.313189	531.000000	
23.332910	563.000000	
23.352632	567.000000	
23.372353	575.000000	
23.392075	536.000000	
23.411796	526.000000	
23.431517	575.000000	
23.451239	548.000000	
23.470960	543.000000	
23.490681	579.000000	
23.510403	572.000000	
23.530124	566.000000	
23.549845	499.000000	
23.569567	502.000000	
23.589288	546.000000	
23.609010	539.000000	
23.628731	591.000000	
23.648452	528.000000	
23.668174	477.000000	
23.687895	544.000000	
23.707616	569.000000	
23.727338	544.000000	
23.747059	526.000000	
23.766780	538.000000	
23.786502	519.000000	
23.806223	551.000000	
23.825945	577.000000	
23.845666	586.000000	
23.865387	538.000000	
23.885109	556.000000	
23.904830	595.000000	
23.924551	544.000000	
23.944273	544.000000	
23.963994	533.000000	
23.983715	592.000000	
24.003437	555.000000	
24.023158	549.000000	
24.042880	528.000000	
24.062601	560.000000	
24.082322	570.000000	
24.102044	547.000000	
24.121765	542.000000	
24.141486	579.000000	
24.161208	595.000000	
24.180929	601.000000	
24.200650	617.000000	
24.220372	574.000000	
24.240093	621.000000	
24.259815	639.000000	
24.279536	612.000000	
24.299257	702.000000	
24.318979	696.000000	
24.338700	692.000000	
24.358421	731.000000	
24.378143	724.000000	
24.397864	680.000000	
24.417586	698.000000	
24.437307	745.000000	
24.457028	766.000000	
24.476750	725.000000	
24.496471	654.000000	
24.516192	698.000000	
24.535914	694.000000	
24.555635	650.000000	
24.575356	610.000000	
24.595078	618.000000	
24.614799	595.000000	
24.634521	619.000000	
24.654242	648.000000	
24.673963	632.000000	
24.693685	584.000000	
24.713406	581.000000	
24.733127	583.000000	
24.752849	573.000000	
24.772570	546.000000	
24.792291	590.000000	
24.812013	552.000000	
24.831734	550.000000	
24.851456	561.000000	
24.871177	564.000000	
24.890898	579.000000	
24.910620	602.000000	
24.930341	568.000000	
24.950062	550.000000	
24.969784	519.000000	
24.989505	533.000000	
25.009226	492.000000	
25.028948	515.000000	
25.048669	568.000000	
25.068391	569.000000	
25.088112	564.000000	
25.107833	563.000000	
25.127555	556.000000	
25.147276	584.000000	
25.166997	526.000000	
25.186719	549.000000	
25.206440	563.000000	
25.226161	593.000000	
25.245883	587.000000	
25.265604	553.000000	
25.285326	551.000000	
25.305047	548.000000	
25.324768	592.000000	
25.344490	536.000000	
25.364211	512.000000	
25.383932	536.000000	
25.403654	586.000000	
25.423375	568.000000	
25.443096	596.000000	
25.462818	527.000000	
25.482539	549.000000	
25.502261	576.000000	
25.521982	615.000000	
25.541703	534.000000	
25.561425	587.000000	
25.581146	564.000000	
25.600867	515.000000	
25.620589	517.000000	
25.640310	540.000000	
25.660031	533.000000	
25.679753	542.000000	
25.699474	524.000000	
25.719196	537.000000	
25.738917	599.000000	
25.758638	512.000000	
25.778360	539.000000	
25.798081	581.000000	
25.817802	554.000000	
25.837524	518.000000	
25.857245	519.000000	
25.876966	536.000000	
25.896688	572.000000	
25.916409	508.000000	
25.936131	545.000000	
25.955852	535.000000	
25.975573	530.000000	
25.995295	551.000000	
26.015016	549.000000	
26.034737	544.000000	
26.054459	536.000000	
26.074180	582.000000	
26.093901	552.000000	
26.113623	556.000000	
26.133344	555.000000	
26.153066	545.000000	
26.172787	566.000000	
26.192508	550.000000	
26.212230	559.000000	
26.231951	524.000000	
26.251672	575.000000	
26.271394	524.000000	
26.291115	569.000000	
26.310836	564.000000	
26.330558	541.000000	
26.350279	581.000000	
26.370001	556.000000	
26.389722	548.000000	
26.409443	538.000000	
26.429165	534.000000	
26.448886	540.000000	
26.468607	501.000000	
26.488329	499.000000	
26.508050	543.000000	
26.527771	567.000000	
26.547493	549.000000	
26.567214	530.000000	
26.586936	542.000000	
26.606657	504.000000	
26.626378	581.000000	
26.646100	608.000000	
26.665821	612.000000	
26.685542	586.000000	
26.705264	550.000000	
26.724985	551.000000	
26.744706	561.000000	
26.764428	565.000000	
26.784149	577.000000	
26.803871	570.000000	
26.823592	536.000000	
26.843313	534.000000	
26.863035	585.000000	
26.882756	558.000000	
26.902477	549.000000	
26.922199	592.000000	
26.941920	563.000000	
26.961641	566.000000	
26.981363	561.000000	
27.001084	563.000000	
27.020806	570.000000	
27.040527	546.000000	
27.060248	559.000000	
27.079970	530.000000	
27.099691	518.000000	
27.119412	540.000000	
27.139134	499.000000	
27.158855	533.000000	
27.178576	563.000000	
27.198298	537.000000	
27.218019	553.000000	
27.237741	526.000000	
27.257462	552.000000	
27.277183	520.000000	
27.296905	585.000000	
27.316626	560.000000	
27.336347	497.000000	
27.356069	561.000000	
27.375790	537.000000	
27.395511	543.000000	
27.415233	568.000000	
27.434954	553.000000	
27.454676	548.000000	
27.474397	575.000000	
27.494118	520.000000	
27.513840	520.000000	
27.533561	549.000000	
27.553282	557.000000	
27.573004	477.000000	
27.592725	575.000000	
27.612446	583.000000	
27.632168	529.000000	
27.651889	553.000000	
27.671611	574.000000	
27.691332	538.000000	
27.711053	578.000000	
27.730775	547.000000	
27.750496	551.000000	
27.770217	571.000000	
27.789939	507.000000	
27.809660	546.000000	
27.829381	550.000000	
27.849103	549.000000	
27.868824	562.000000	
27.888546	573.000000	
27.908267	525.000000	
27.927988	527.000000	
27.947710	574.000000	
27.967431	543.000000	
27.987152	560.000000	
28.006874	587.000000	
28.026595	548.000000	
28.046316	574.000000	
28.066038	547.000000	
28.085759	511.000000	
28.105481	570.000000	
28.125202	550.000000	
28.144923	525.000000	
28.164645	547.000000	
28.184366	574.000000	
28.204087	552.000000	
28.223809	573.000000	
28.243530	546.000000	
28.263251	554.000000	
28.282973	601.000000	
28.302694	554.000000	
28.322416	493.000000	
28.342137	553.000000	
28.361858	567.000000	
28.381580	560.000000	
28.401301	513.000000	
28.421022	516.000000	
28.440744	525.000000	
28.460465	574.000000	
28.480186	533.000000	
28.499908	523.000000	
28.519629	524.000000	
28.539351	534.000000	
28.559072	554.000000	
28.578793	534.000000	
28.598515	550.000000	
28.618236	553.000000	
28.637957	522.000000	
28.657679	583.000000	
28.677400	578.000000	
28.697121	637.000000	
28.716843	578.000000	
28.736564	476.000000	
28.756286	546.000000	
28.776007	583.000000	
28.795728	555.000000	
28.815450	505.000000	
28.835171	535.000000	
28.854892	592.000000	
28.874614	528.000000	
28.894335	556.000000	
28.914056	539.000000	
28.933778	514.000000	
28.953499	573.000000	
28.973221	518.000000	
28.992942	558.000000	
29.012663	577.000000	
29.032385	550.000000	
29.052106	554.000000	
29.071827	536.000000	
29.091549	520.000000	
29.111270	575.000000	
29.130991	518.000000	
29.150713	569.000000	
29.170434	532.000000	
29.190156	565.000000	
29.209877	551.000000	
29.229598	583.000000	
29.249320	602.000000	
29.269041	539.000000	
29.288762	501.000000	
29.308484	545.000000	
29.328205	558.000000	
29.347926	542.000000	
29.367648	580.000000	
29.387369	525.000000	
29.407091	536.000000	
29.426812	529.000000	
29.446533	520.000000	
29.466255	488.000000	
29.485976	544.000000	
29.505697	576.000000	
29.525419	539.000000	
29.545140	566.000000	
29.564861	531.000000	
29.584583	580.000000	
29.604304	584.000000	
29.624026	549.000000	
29.643747	518.000000	
29.663468	537.000000	
29.683190	532.000000	
29.702911	557.000000	
29.722632	526.000000	
29.742354	621.000000	
29.762075	540.000000	
29.781796	550.000000	
29.801518	579.000000	
29.821239	573.000000	
29.840961	542.000000	
29.860682	550.000000	
29.880403	518.000000	
29.900125	542.000000	
29.919846	562.000000	
29.939567	564.000000	
29.959289	564.000000	
29.979010	563.000000	
29.998731	584.000000	
30.018453	563.000000	
30.038174	572.000000	
30.057896	603.000000	
30.077617	535.000000	
30.097338	621.000000	
30.117060	553.000000	
30.136781	643.000000	
30.156502	561.000000	
30.176224	556.000000	
30.195945	585.000000	
30.215666	612.000000	
30.235388	611.000000	
30.255109	591.000000	
30.274831	620.000000	
30.294552	582.000000	
30.314273	561.000000	
30.333995	561.000000	
30.353716	585.000000	
30.373437	562.000000	
30.393159	547.000000	
30.412880	581.000000	
30.432601	566.000000	
30.452323	537.000000	
30.472044	529.000000	
30.491766	602.000000	
30.511487	543.000000	
30.531208	561.000000	
30.550930	563.000000	
30.570651	544.000000	
30.590372	562.000000	
30.610094	572.000000	
30.629815	534.000000	
30.649536	557.000000	
30.669258	561.000000	
30.688979	574.000000	
30.708701	588.000000	
30.728422	561.000000	
30.748143	553.000000	
30.767865	538.000000	
30.787586	574.000000	
30.807307	536.000000	
30.827029	529.000000	
30.846750	558.000000	
30.866471	568.000000	
30.886193	553.000000	
30.905914	544.000000	
30.925636	576.000000	
30.945357	569.000000	
30.965078	522.000000	
30.984800	579.000000	
31.004521	559.000000	
31.024242	561.000000	
31.043964	595.000000	
31.063685	544.000000	
31.083406	576.000000	
31.103128	539.000000	
31.122849	557.000000	
31.142571	529.000000	
31.162292	573.000000	
31.182013	552.000000	
31.201735	540.000000	
31.221456	616.000000	
31.241177	557.000000	
31.260899	529.000000	
31.280620	577.000000	
31.300341	543.000000	
31.320063	527.000000	
31.339784	547.000000	
31.359506	576.000000	
31.379227	572.000000	
31.398948	556.000000	
31.418670	581.000000	
31.438391	548.000000	
31.458112	522.000000	
31.477834	556.000000	
31.497555	538.000000	
31.517276	526.000000	
31.536998	525.000000	
31.556719	497.000000	
31.576441	534.000000	
31.596162	552.000000	
31.615883	534.000000	
31.635605	575.000000	
31.655326	545.000000	
31.675047	561.000000	
31.694769	520.000000	
31.714490	553.000000	
31.734211	543.000000	
31.753933	550.000000	
31.773654	547.000000	
31.793376	601.000000	
31.813097	487.000000	
31.832818	578.000000	
31.852540	575.000000	
31.872261	534.000000	
31.891982	560.000000	
31.911704	593.000000	
31.931425	592.000000	
31.951146	556.000000	
31.970868	560.000000	
31.990589	525.000000	
32.010311	559.000000	
32.030032	552.000000	
32.049753	527.000000	
32.069475	541.000000	
32.089196	560.000000	
32.108917	533.000000	
32.128639	573.000000	
32.148360	520.000000	
32.168081	574.000000	
32.187803	575.000000	
32.207524	543.000000	
32.227246	585.000000	
32.246967	568.000000	
32.266688	540.000000	
32.286410	627.000000	
32.306131	550.000000	
32.325852	544.000000	
32.345574	530.000000	
32.365295	591.000000	
32.385016	544.000000	
32.404738	559.000000	
32.424459	548.000000	
32.444181	553.000000	
32.463902	569.000000	
32.483623	584.000000	
32.503345	574.000000	
32.523066	562.000000	
32.542787	572.000000	
32.562509	540.000000	
32.582230	549.000000	
32.601951	576.000000	
32.621673	590.000000	
32.641394	529.000000	
32.661116	521.000000	
32.680837	585.000000	
32.700558	570.000000	
32.720280	586.000000	
32.740001	533.000000	
32.759722	587.000000	
32.779444	546.000000	
32.799165	594.000000	
32.818886	562.000000	
32.838608	548.000000	
32.858329	565.000000	
32.878051	571.000000	
32.897772	561.000000	
32.917493	549.000000	
32.937215	566.000000	
32.956936	525.000000	
32.976657	543.000000	
32.996379	559.000000	
33.016100	572.000000	
33.035821	556.000000	
33.055543	545.000000	
33.075264	595.000000	
33.094986	563.000000	
33.114707	576.000000	
33.134428	589.000000	
33.154150	574.000000	
33.173871	590.000000	
33.193592	625.000000	
33.213314	576.000000	
33.233035	608.000000	
33.252757	601.000000	
33.272478	635.000000	
33.292199	660.000000	
33.311921	600.000000	
33.331642	685.000000	
33.351363	719.000000	
33.371085	713.000000	
33.390806	754.000000	
33.410527	717.000000	
33.430249	768.000000	
33.449970	768.000000	
33.469692	702.000000	
33.489413	789.000000	
33.509134	717.000000	
33.528856	692.000000	
33.548577	732.000000	
33.568298	711.000000	
33.588020	704.000000	
33.607741	656.000000	
33.627462	662.000000	
33.647184	636.000000	
33.666905	635.000000	
33.686627	644.000000	
33.706348	632.000000	
33.726069	602.000000	
33.745791	609.000000	
33.765512	638.000000	
33.785233	631.000000	
33.804955	624.000000	
33.824676	584.000000	
33.844397	576.000000	
33.864119	596.000000	
33.883840	584.000000	
33.903562	592.000000	
33.923283	572.000000	
33.943004	576.000000	
33.962726	588.000000	
33.982447	579.000000	
34.002168	552.000000	
34.021890	565.000000	
34.041611	551.000000	
34.061332	573.000000	
34.081054	535.000000	
34.100775	549.000000	
34.120497	541.000000	
34.140218	542.000000	
34.159939	530.000000	
34.179661	552.000000	
34.199382	553.000000	
34.219103	510.000000	
34.238825	607.000000	
34.258546	578.000000	
34.278267	581.000000	
34.297989	595.000000	
34.317710	548.000000	
34.337432	573.000000	
34.357153	544.000000	
34.376874	602.000000	
34.396596	538.000000	
34.416317	552.000000	
34.436038	515.000000	
34.455760	602.000000	
34.475481	559.000000	
34.495202	576.000000	
34.514924	574.000000	
34.534645	514.000000	
34.554367	583.000000	
34.574088	577.000000	
34.593809	569.000000	
34.613531	585.000000	
34.633252	569.000000	
34.652973	581.000000	
34.672695	572.000000	
34.692416	532.000000	
34.712137	609.000000	
34.731859	526.000000	
34.751580	557.000000	
34.771302	557.000000	
34.791023	561.000000	
34.810744	529.000000	
34.830466	564.000000	
34.850187	577.000000	
34.869908	600.000000	
34.889630	560.000000	
34.909351	549.000000	
34.929072	575.000000	
34.948794	579.000000	
34.968515	522.000000	
34.988237	588.000000	
35.007958	612.000000	
35.027679	587.000000	
35.047401	561.000000	
35.067122	581.000000	
35.086843	608.000000	
35.106565	576.000000	
35.126286	577.000000	
35.146007	562.000000	
35.165729	575.000000	
35.185450	553.000000	
35.205172	588.000000	
35.224893	573.000000	
35.244614	601.000000	
35.264336	573.000000	
35.284057	565.000000	
35.303778	616.000000	
35.323500	592.000000	
35.343221	562.000000	
35.362942	590.000000	
35.382664	574.000000	
35.402385	574.000000	
35.422107	576.000000	
35.441828	581.000000	
35.461549	627.000000	
35.481271	635.000000	
35.500992	603.000000	
35.520713	637.000000	
35.540435	637.000000	
35.560156	618.000000	
35.579877	644.000000	
35.599599	615.000000	
35.619320	607.000000	
35.639042	638.000000	
35.658763	646.000000	
35.678484	644.000000	
35.698206	628.000000	
35.717927	655.000000	
35.737648	646.000000	
35.757370	667.000000	
35.777091	646.000000	
35.796812	641.000000	
35.816534	662.000000	
35.836255	676.000000	
35.855977	696.000000	
35.875698	618.000000	
35.895419	643.000000	
35.915141	652.000000	
35.934862	672.000000	
35.954583	643.000000	
35.974305	677.000000	
35.994026	642.000000	
36.013747	636.000000	
36.033469	662.000000	
36.053190	663.000000	
36.072912	649.000000	
36.092633	584.000000	
36.112354	596.000000	
36.132076	618.000000	
36.151797	629.000000	
36.171518	574.000000	
36.191240	537.000000	
36.210961	631.000000	
36.230682	583.000000	
36.250404	578.000000	
36.270125	611.000000	
36.289847	614.000000	
36.309568	584.000000	
36.329289	558.000000	
36.349011	561.000000	
36.368732	568.000000	
36.388453	572.000000	
36.408175	574.000000	
36.427896	567.000000	
36.447617	546.000000	
36.467339	577.000000	
36.487060	552.000000	
36.506782	540.000000	
36.526503	529.000000	
36.546224	575.000000	
36.565946	552.000000	
36.585667	579.000000	
36.605388	581.000000	
36.625110	540.000000	
36.644831	580.000000	
36.664552	591.000000	
36.684274	547.000000	
36.703995	555.000000	
36.723717	559.000000	
36.743438	581.000000	
36.763159	520.000000	
36.782881	555.000000	
36.802602	576.000000	
36.822323	582.000000	
36.842045	525.000000	
36.861766	545.000000	
36.881487	566.000000	
36.901209	510.000000	
36.920930	540.000000	
36.940652	566.000000	
36.960373	541.000000	
36.980094	569.000000	
36.999816	527.000000	
37.019537	573.000000	
37.039258	619.000000	
37.058980	551.000000	
37.078701	530.000000	
37.098422	531.000000	
37.118144	525.000000	
37.137865	587.000000	
37.157587	596.000000	
37.177308	586.000000	
37.197029	614.000000	
37.216751	645.000000	
37.236472	577.000000	
37.256193	571.000000	
37.275915	582.000000	
37.295636	583.000000	
37.315357	628.000000	
37.335079	611.000000	
37.354800	567.000000	
37.374522	569.000000	
37.394243	568.000000	
37.413964	590.000000	
37.433686	534.000000	
37.453407	565.000000	
37.473128	579.000000	
37.492850	550.000000	
37.512571	572.000000	
37.532292	484.000000	
37.552014	571.000000	
37.571735	548.000000	
37.591457	580.000000	
37.611178	531.000000	
37.630899	513.000000	
37.650621	549.000000	
37.670342	547.000000	
37.690063	543.000000	
37.709785	547.000000	
37.729506	563.000000	
37.749227	583.000000	
37.768949	597.000000	
37.788670	605.000000	
37.808392	561.000000	
37.828113	552.000000	
37.847834	552.000000	
37.867556	569.000000	
37.887277	552.000000	
37.906998	545.000000	
37.926720	523.000000	
37.946441	556.000000	
37.966162	578.000000	
37.985884	514.000000	
38.005605	568.000000	
38.025327	573.000000	
38.045048	541.000000	
38.064769	560.000000	
38.084491	572.000000	
38.104212	565.000000	
38.123933	569.000000	
38.143655	563.000000	
38.163376	519.000000	
38.183097	512.000000	
38.202819	587.000000	
38.222540	561.000000	
38.242262	565.000000	
38.261983	552.000000	
38.281704	545.000000	
38.301426	514.000000	
38.321147	552.000000	
38.340868	524.000000	
38.360590	545.000000	
38.380311	569.000000	
38.400032	524.000000	
38.419754	591.000000	
38.439475	530.000000	
38.459197	517.000000	
38.478918	502.000000	
38.498639	562.000000	
38.518361	520.000000	
38.538082	559.000000	
38.557803	545.000000	
38.577525	562.000000	
38.597246	575.000000	
38.616967	541.000000	
38.636689	560.000000	
38.656410	530.000000	
38.676132	582.000000	
38.695853	587.000000	
38.715574	571.000000	
38.735296	506.000000	
38.755017	518.000000	
38.774738	568.000000	
38.794460	544.000000	
38.814181	470.000000	
38.833902	541.000000	
38.853624	526.000000	
38.873345	506.000000	
38.893067	547.000000	
38.912788	544.000000	
38.932509	552.000000	
38.952231	520.000000	
38.971952	538.000000	
38.991673	555.000000	
39.011395	567.000000	
39.031116	570.000000	
39.050837	584.000000	
39.070559	556.000000	
39.090280	547.000000	
39.110002	554.000000	
39.129723	518.000000	
39.149444	538.000000	
39.169166	526.000000	
39.188887	535.000000	
39.208608	562.000000	
39.228330	511.000000	
39.248051	548.000000	
39.267772	529.000000	
39.287494	553.000000	
39.307215	590.000000	
39.326937	546.000000	
39.346658	551.000000	
39.366379	553.000000	
39.386101	524.000000	
39.405822	541.000000	
39.425543	569.000000	
39.445265	605.000000	
39.464986	557.000000	
39.484707	529.000000	
39.504429	516.000000	
39.524150	571.000000	
39.543872	572.000000	
39.563593	585.000000	
39.583314	572.000000	
39.603036	537.000000	
39.622757	594.000000	
39.642478	556.000000	
39.662200	576.000000	
39.681921	567.000000	
39.701642	542.000000	
39.721364	552.000000	
39.741085	569.000000	
39.760807	515.000000	
39.780528	513.000000	
39.800249	548.000000	
39.819971	520.000000	
39.839692	546.000000	
39.859413	541.000000	
39.879135	536.000000	
39.898856	565.000000	
39.918577	496.000000	
39.938299	542.000000	
39.958020	572.000000	
39.977742	554.000000	
39.997463	552.000000	
40.017184	528.000000	
40.036906	541.000000	
40.056627	532.000000	
40.076348	557.000000	
40.096070	599.000000	
40.115791	572.000000	
40.135512	605.000000	
40.155234	527.000000	
40.174955	507.000000	
40.194677	516.000000	
40.214398	538.000000	
40.234119	580.000000	
40.253841	535.000000	
40.273562	500.000000	
40.293283	559.000000	
40.313005	561.000000	
40.332726	568.000000	
40.352447	520.000000	
40.372169	565.000000	
40.391890	528.000000	
40.411612	512.000000	
40.431333	539.000000	
40.451054	554.000000	
40.470776	528.000000	
40.490497	532.000000	
40.510218	576.000000	
40.529940	529.000000	
40.549661	530.000000	
40.569382	551.000000	
40.589104	503.000000	
40.608825	532.000000	
40.628547	591.000000	
40.648268	546.000000	
40.667989	538.000000	
40.687711	520.000000	
40.707432	587.000000	
40.727153	526.000000	
40.746875	547.000000	
40.766596	515.000000	
40.786317	478.000000	
40.806039	559.000000	
40.825760	532.000000	
40.845482	570.000000	
40.865203	579.000000	
40.884924	555.000000	
40.904646	525.000000	
40.924367	576.000000	
40.944088	538.000000	
40.963810	593.000000	
40.983531	544.000000	
41.003252	534.000000	
41.022974	563.000000	
41.042695	562.000000	
41.062417	531.000000	
41.082138	609.000000	
41.101859	541.000000	
41.121581	554.000000	
41.141302	563.000000	
41.161023	575.000000	
41.180745	569.000000	
41.200466	574.000000	
41.220187	617.000000	
41.239909	626.000000	
41.259630	608.000000	
41.279352	565.000000	
41.299073	569.000000	
41.318794	543.000000	
41.338516	556.000000	
41.358237	584.000000	
41.377958	543.000000	
41.397680	609.000000	
41.417401	544.000000	
41.437122	610.000000	
41.456844	576.000000	
41.476565	568.000000	
41.496287	565.000000	
41.516008	598.000000	
41.535729	551.000000	
41.555451	575.000000	
41.575172	583.000000	
41.594893	580.000000	
41.614615	547.000000	
41.634336	551.000000	
41.654057	524.000000	
41.673779	538.000000	
41.693500	537.000000	
41.713222	551.000000	
41.732943	568.000000	
41.752664	539.000000	
41.772386	553.000000	
41.792107	539.000000	
41.811828	570.000000	
41.831550	554.000000	
41.851271	629.000000	
41.870992	561.000000	
41.890714	542.000000	
41.910435	502.000000	
41.930157	552.000000	
41.949878	521.000000	
41.969599	586.000000	
41.989321	562.000000	
42.009042	586.000000	
42.028763	579.000000	
42.048485	559.000000	
42.068206	557.000000	
42.087928	566.000000	
42.107649	522.000000	
42.127370	559.000000	
42.147092	555.000000	
42.166813	516.000000	
42.186534	572.000000	
42.206256	516.000000	
42.225977	551.000000	
42.245698	558.000000	
42.265420	580.000000	
42.285141	558.000000	
42.304863	592.000000	
42.324584	558.000000	
42.344305	532.000000	
42.364027	572.000000	
42.383748	541.000000	
42.403469	570.000000	
42.423191	521.000000	
42.442912	519.000000	
42.462633	562.000000	
42.482355	506.000000	
42.502076	533.000000	
42.521798	542.000000	
42.541519	550.000000	
42.561240	560.000000	
42.580962	532.000000	
42.600683	587.000000	
42.620404	541.000000	
42.640126	614.000000	
42.659847	585.000000	
42.679568	583.000000	
42.699290	513.000000	
42.719011	592.000000	
42.738733	548.000000	
42.758454	521.000000	
42.778175	551.000000	
42.797897	585.000000	
42.817618	600.000000	
42.837339	626.000000	
42.857061	612.000000	
42.876782	570.000000	
42.896503	582.000000	
42.916225	603.000000	
42.935946	554.000000	
42.955668	636.000000	
42.975389	592.000000	
42.995110	646.000000	
43.014832	579.000000	
43.034553	596.000000	
43.054274	620.000000	
43.073996	584.000000	
43.093717	631.000000	
43.113438	583.000000	
43.133160	629.000000	
43.152881	573.000000	
43.172603	638.000000	
43.192324	674.000000	
43.212045	638.000000	
43.231767	614.000000	
43.251488	672.000000	
43.271209	631.000000	
43.290931	605.000000	
43.310652	688.000000	
43.330373	640.000000	
43.350095	695.000000	
43.369816	660.000000	
43.389538	641.000000	
43.409259	658.000000	
43.428980	655.000000	
43.448702	627.000000	
43.468423	679.000000	
43.488144	594.000000	
43.507866	598.000000	
43.527587	649.000000	
43.547308	606.000000	
43.567030	611.000000	
43.586751	613.000000	
43.606473	581.000000	
43.626194	612.000000	
43.645915	646.000000	
43.665637	610.000000	
43.685358	621.000000	
43.705079	661.000000	
43.724801	592.000000	
43.744522	638.000000	
43.764243	625.000000	
43.783965	681.000000	
43.803686	692.000000	
43.823408	661.000000	
43.843129	734.000000	
43.862850	754.000000	
43.882572	785.000000	
43.902293	880.000000	
43.922014	922.000000	
43.941736	1046.000000	
43.961457	1156.000000	
43.981178	1341.000000	
44.000900	1721.000000	
44.020621	2354.000000	
44.040343	3251.000000	
44.060064	4683.000000	
44.079785	6535.000000	
44.099507	9435.000000	
44.119228	12822.000000	
44.138949	13580.000000	
44.158671	12794.000000	
44.178392	13050.000000	
44.198113	13494.000000	
44.217835	13263.000000	
44.237556	11593.000000	
44.257278	9463.000000	
44.276999	7657.000000	
44.296720	6753.000000	
44.316442	6254.000000	
44.336163	5014.000000	
44.355884	3422.000000	
44.375606	2214.000000	
44.395327	1626.000000	
44.415048	1312.000000	
44.434770	1103.000000	
44.454491	988.000000	
44.474213	954.000000	
44.493934	792.000000	
44.513655	831.000000	
44.533377	742.000000	
44.553098	710.000000	
44.572819	644.000000	
44.592541	689.000000	
44.612262	656.000000	
44.631983	647.000000	
44.651705	680.000000	
44.671426	665.000000	
44.691148	586.000000	
44.710869	637.000000	
44.730590	606.000000	
44.750312	647.000000	
44.770033	598.000000	
44.789754	668.000000	
44.809476	630.000000	
44.829197	627.000000	
44.848918	612.000000	
44.868640	615.000000	
44.888361	606.000000	
44.908083	609.000000	
44.927804	571.000000	
44.947525	627.000000	
44.967247	607.000000	
44.986968	574.000000	
45.006689	586.000000	
45.026411	514.000000	
45.046132	621.000000	
45.065853	604.000000	
45.085575	588.000000	
45.105296	571.000000	
45.125018	557.000000	
45.144739	591.000000	
45.164460	616.000000	
45.184182	587.000000	
45.203903	580.000000	
45.223624	610.000000	
45.243346	607.000000	
45.263067	582.000000	
45.282788	597.000000	
45.302510	611.000000	
45.322231	609.000000	
45.341953	587.000000	
45.361674	562.000000	
45.381395	578.000000	
45.401117	599.000000	
45.420838	581.000000	
45.440559	585.000000	
45.460281	573.000000	
45.480002	592.000000	
45.499723	591.000000	
45.519445	608.000000	
45.539166	586.000000	
45.558888	584.000000	
45.578609	563.000000	
45.598330	546.000000	
45.618052	575.000000	
45.637773	549.000000	
45.657494	605.000000	
45.677216	562.000000	
45.696937	552.000000	
45.716658	561.000000	
45.736380	595.000000	
45.756101	522.000000	
45.775823	528.000000	
45.795544	573.000000	
45.815265	583.000000	
45.834987	559.000000	
45.854708	545.000000	
45.874429	561.000000	
45.894151	547.000000	
45.913872	608.000000	
45.933593	624.000000	
45.953315	515.000000	
45.973036	598.000000	
45.992758	532.000000	
46.012479	559.000000	
46.032200	560.000000	
46.051922	609.000000	
46.071643	560.000000	
46.091364	563.000000	
46.111086	554.000000	
46.130807	547.000000	
46.150528	562.000000	
46.170250	577.000000	
46.189971	584.000000	
46.209693	536.000000	
46.229414	588.000000	
46.249135	571.000000	
46.268857	545.000000	
46.288578	522.000000	
46.308299	550.000000	
46.328021	562.000000	
46.347742	600.000000	
46.367463	549.000000	
46.387185	555.000000	
46.406906	567.000000	
46.426628	554.000000	
46.446349	565.000000	
46.466070	517.000000	
46.485792	568.000000	
46.505513	567.000000	
46.525234	560.000000	
46.544956	516.000000	
46.564677	568.000000	
46.584398	558.000000	
46.604120	534.000000	
46.623841	532.000000	
46.643563	549.000000	
46.663284	521.000000	
46.683005	553.000000	
46.702727	538.000000	
46.722448	567.000000	
46.742169	540.000000	
46.761891	544.000000	
46.781612	532.000000	
46.801333	567.000000	
46.821055	572.000000	
46.840776	555.000000	
46.860498	525.000000	
46.880219	586.000000	
46.899940	570.000000	
46.919662	547.000000	
46.939383	544.000000	
46.959104	569.000000	
46.978826	576.000000	
46.998547	570.000000	
47.018268	529.000000	
47.037990	549.000000	
47.057711	562.000000	
47.077433	529.000000	
47.097154	588.000000	
47.116875	542.000000	
47.136597	538.000000	
47.156318	569.000000	
47.176039	538.000000	
47.195761	548.000000	
47.215482	535.000000	
47.235203	534.000000	
47.254925	588.000000	
47.274646	583.000000	
47.294368	516.000000	
47.314089	595.000000	
47.333810	567.000000	
47.353532	529.000000	
47.373253	509.000000	
47.392974	554.000000	
47.412696	498.000000	
47.432417	534.000000	
47.452138	504.000000	
47.471860	526.000000	
47.491581	581.000000	
47.511303	518.000000	
47.531024	547.000000	
47.550745	534.000000	
47.570467	548.000000	
47.590188	588.000000	
47.609909	607.000000	
47.629631	553.000000	
47.649352	595.000000	
47.669073	552.000000	
47.688795	567.000000	
47.708516	574.000000	
47.728238	564.000000	
47.747959	554.000000	
47.767680	585.000000	
47.787402	565.000000	
47.807123	579.000000	
47.826844	510.000000	
47.846566	537.000000	
47.866287	549.000000	
47.886008	512.000000	
47.905730	560.000000	
47.925451	528.000000	
47.945173	565.000000	
47.964894	540.000000	
47.984615	531.000000	
48.004337	526.000000	
48.024058	505.000000	
48.043779	550.000000	
48.063501	541.000000	
48.083222	549.000000	
48.102943	533.000000	
48.122665	513.000000	
48.142386	565.000000	
48.162108	561.000000	
48.181829	550.000000	
48.201550	556.000000	
48.221272	565.000000	
48.240993	513.000000	
48.260714	561.000000	
48.280436	524.000000	
48.300157	562.000000	
48.319878	495.000000	
48.339600	548.000000	
48.359321	520.000000	
48.379043	547.000000	
48.398764	527.000000	
48.418485	513.000000	
48.438207	604.000000	
48.457928	501.000000	
48.477649	533.000000	
48.497371	494.000000	
48.517092	536.000000	
48.536813	561.000000	
48.556535	548.000000	
48.576256	541.000000	
48.595978	566.000000	
48.615699	582.000000	
48.635420	534.000000	
48.655142	513.000000	
48.674863	535.000000	
48.694584	522.000000	
48.714306	541.000000	
48.734027	486.000000	
48.753748	564.000000	
48.773470	534.000000	
48.793191	550.000000	
48.812913	550.000000	
48.832634	553.000000	
48.852355	548.000000	
48.872077	551.000000	
48.891798	535.000000	
48.911519	522.000000	
48.931241	550.000000	
48.950962	526.000000	
48.970683	561.000000	
48.990405	481.000000	
49.010126	492.000000	
49.029848	517.000000	
49.049569	534.000000	
49.069290	546.000000	
49.089012	552.000000	
49.108733	525.000000	
49.128454	548.000000	
49.148176	514.000000	
49.167897	544.000000	
49.187618	539.000000	
49.207340	528.000000	
49.227061	541.000000	
49.246783	530.000000	
49.266504	492.000000	
49.286225	552.000000	
49.305947	540.000000	
49.325668	543.000000	
49.345389	575.000000	
49.365111	506.000000	
49.384832	529.000000	
49.404553	492.000000	
49.424275	536.000000	
49.443996	524.000000	
49.463718	526.000000	
49.483439	575.000000	
49.503160	522.000000	
49.522882	573.000000	
49.542603	542.000000	
49.562324	589.000000	
49.582046	512.000000	
49.601767	546.000000	
49.621488	576.000000	
49.641210	536.000000	
49.660931	499.000000	
49.680653	566.000000	
49.700374	540.000000	
49.720095	538.000000	
49.739817	555.000000	
49.759538	560.000000	
49.779259	572.000000	
49.798981	549.000000	
49.818702	559.000000	
49.838423	533.000000	
49.858145	538.000000	
49.877866	545.000000	
49.897588	551.000000	
49.917309	585.000000	
49.937030	567.000000	
49.956752	565.000000	
49.976473	608.000000	
49.996194	551.000000	
50.015916	538.000000	
50.035637	579.000000	
50.055358	631.000000	
50.075080	559.000000	
50.094801	542.000000	
50.114523	525.000000	
50.134244	538.000000	
50.153965	533.000000	
50.173687	533.000000	
50.193408	583.000000	
50.213129	569.000000	
50.232851	566.000000	
50.252572	580.000000	
50.272293	558.000000	
50.292015	534.000000	
50.311736	531.000000	
50.331458	612.000000	
50.351179	576.000000	
50.370900	528.000000	
50.390622	586.000000	
50.410343	594.000000	
50.430064	563.000000	
50.449786	566.000000	
50.469507	565.000000	
50.489228	537.000000	
50.508950	569.000000	
50.528671	588.000000	
50.548393	532.000000	
50.568114	557.000000	
50.587835	533.000000	
50.607557	558.000000	
50.627278	513.000000	
50.646999	535.000000	
50.666721	540.000000	
50.686442	529.000000	
50.706163	544.000000	
50.725885	533.000000	
50.745606	580.000000	
50.765328	536.000000	
50.785049	547.000000	
50.804770	565.000000	
50.824492	560.000000	
50.844213	558.000000	
50.863934	575.000000	
50.883656	542.000000	
50.903377	582.000000	
50.923099	568.000000	
50.942820	580.000000	
50.962541	541.000000	
50.982263	580.000000	
51.001984	536.000000	
51.021705	591.000000	
51.041427	601.000000	
51.061148	615.000000	
51.080869	545.000000	
51.100591	651.000000	
51.120312	604.000000	
51.140034	640.000000	
51.159755	639.000000	
51.179476	675.000000	
51.199198	737.000000	
51.218919	745.000000	
51.238640	855.000000	
51.258362	1013.000000	
51.278083	1100.000000	
51.297804	1288.000000	
51.317526	1623.000000	
51.337247	2032.000000	
51.356969	2708.000000	
51.376690	3334.000000	
51.396411	3617.000000	
51.416133	3578.000000	
51.435854	3757.000000	
51.455575	3990.000000	
51.475297	4423.000000	
51.495018	4685.000000	
51.514739	4251.000000	
51.534461	3593.000000	
51.554182	2892.000000	
51.573904	2585.000000	
51.593625	2509.000000	
51.613346	2397.000000	
51.633068	2284.000000	
51.652789	1862.000000	
51.672510	1490.000000	
51.692232	1209.000000	
51.711953	986.000000	
51.731674	834.000000	
51.751396	720.000000	
51.771117	735.000000	
51.790839	666.000000	
51.810560	617.000000	
51.830281	623.000000	
51.850003	621.000000	
51.869724	644.000000	
51.889445	571.000000	
51.909167	629.000000	
51.928888	551.000000	
51.948609	597.000000	
51.968331	583.000000	
51.988052	521.000000	
52.007774	531.000000	
52.027495	574.000000	
52.047216	537.000000	
52.066938	526.000000	
52.086659	526.000000	
52.106380	581.000000	
52.126102	522.000000	
52.145823	535.000000	
52.165544	565.000000	
52.185266	564.000000	
52.204987	546.000000	
52.224709	536.000000	
52.244430	529.000000	
52.264151	559.000000	
52.283873	564.000000	
52.303594	564.000000	
52.323315	523.000000	
52.343037	545.000000	
52.362758	536.000000	
52.382479	511.000000	
52.402201	577.000000	
52.421922	546.000000	
52.441644	529.000000	
52.461365	570.000000	
52.481086	564.000000	
52.500808	527.000000	
52.520529	551.000000	
52.540250	526.000000	
52.559972	511.000000	
52.579693	533.000000	
52.599414	538.000000	
52.619136	579.000000	
52.638857	561.000000	
52.658579	546.000000	
52.678300	518.000000	
52.698021	548.000000	
52.717743	493.000000	
52.737464	511.000000	
52.757185	574.000000	
52.776907	532.000000	
52.796628	541.000000	
52.816349	531.000000	
52.836071	547.000000	
52.855792	504.000000	
52.875514	547.000000	
52.895235	535.000000	
52.914956	518.000000	
52.934678	512.000000	
52.954399	537.000000	
52.974120	549.000000	
52.993842	533.000000	
53.013563	496.000000	
53.033284	531.000000	
53.053006	554.000000	
53.072727	559.000000	
53.092449	515.000000	
53.112170	541.000000	
53.131891	539.000000	
53.151613	565.000000	
53.171334	552.000000	
53.191055	503.000000	
53.210777	495.000000	
53.230498	529.000000	
53.250219	518.000000	
53.269941	525.000000	
53.289662	509.000000	
53.309384	532.000000	
53.329105	566.000000	
53.348826	528.000000	
53.368548	529.000000	
53.388269	542.000000	
53.407990	507.000000	
53.427712	508.000000	
53.447433	526.000000	
53.467154	478.000000	
53.486876	533.000000	
53.506597	525.000000	
53.526319	492.000000	
53.546040	524.000000	
53.565761	507.000000	
53.585483	538.000000	
53.605204	537.000000	
53.624925	509.000000	
53.644647	510.000000	
53.664368	521.000000	
53.684089	540.000000	
53.703811	540.000000	
53.723532	528.000000	
53.743254	527.000000	
53.762975	526.000000	
53.782696	510.000000	
53.802418	505.000000	
53.822139	562.000000	
53.841860	505.000000	
53.861582	513.000000	
53.881303	541.000000	
53.901024	532.000000	
53.920746	522.000000	
53.940467	528.000000	
53.960189	530.000000	
53.979910	509.000000	
53.999631	521.000000	
54.019353	511.000000	
54.039074	521.000000	
54.058795	512.000000	
54.078517	530.000000	
54.098238	577.000000	
54.117959	526.000000	
54.137681	536.000000	
54.157402	552.000000	
54.177124	557.000000	
54.196845	584.000000	
54.216566	497.000000	
54.236288	544.000000	
54.256009	508.000000	
54.275730	527.000000	
54.295452	509.000000	
54.315173	558.000000	
54.334894	526.000000	
54.354616	539.000000	
54.374337	550.000000	
54.394059	570.000000	
54.413780	530.000000	
54.433501	597.000000	
54.453223	526.000000	
54.472944	604.000000	
54.492665	556.000000	
54.512387	591.000000	
54.532108	577.000000	
54.551829	564.000000	
54.571551	595.000000	
54.591272	601.000000	
54.610994	530.000000	
54.630715	582.000000	
54.650436	582.000000	
54.670158	564.000000	
54.689879	592.000000	
54.709600	605.000000	
54.729322	557.000000	
54.749043	595.000000	
54.768764	551.000000	
54.788486	563.000000	
54.808207	535.000000	
54.827929	595.000000	
54.847650	577.000000	
54.867371	554.000000	
54.887093	554.000000	
54.906814	600.000000	
54.926535	546.000000	
54.946257	591.000000	
54.965978	558.000000	
54.985699	597.000000	
55.005421	569.000000	
55.025142	532.000000	
55.044864	467.000000	
55.064585	535.000000	
55.084306	542.000000	
55.104028	525.000000	
55.123749	533.000000	
55.143470	512.000000	
55.163192	487.000000	
55.182913	527.000000	
55.202634	544.000000	
55.222356	562.000000	
55.242077	501.000000	
55.261799	536.000000	
55.281520	514.000000	
55.301241	524.000000	
55.320963	492.000000	
55.340684	522.000000	
55.360405	478.000000	
55.380127	540.000000	
55.399848	526.000000	
55.419569	532.000000	
55.439291	528.000000	
55.459012	510.000000	
55.478734	558.000000	
55.498455	476.000000	
55.518176	521.000000	
55.537898	510.000000	
55.557619	509.000000	
55.577340	552.000000	
55.597062	517.000000	
55.616783	478.000000	
55.636504	497.000000	
55.656226	499.000000	
55.675947	539.000000	
55.695669	507.000000	
55.715390	503.000000	
55.735111	522.000000	
55.754833	509.000000	
55.774554	502.000000	
55.794275	512.000000	
55.813997	500.000000	
55.833718	525.000000	
55.853439	509.000000	
55.873161	547.000000	
55.892882	515.000000	
55.912604	547.000000	
55.932325	525.000000	
55.952046	517.000000	
55.971768	550.000000	
55.991489	513.000000	
56.011210	511.000000	
56.030932	528.000000	
56.050653	449.000000	
56.070374	504.000000	
56.090096	531.000000	
56.109817	507.000000	
56.129539	487.000000	
56.149260	508.000000	
56.168981	526.000000	
56.188703	528.000000	
56.208424	515.000000	
56.228145	548.000000	
56.247867	514.000000	
56.267588	493.000000	
56.287309	514.000000	
56.307031	538.000000	
56.326752	497.000000	
56.346474	543.000000	
56.366195	539.000000	
56.385916	479.000000	
56.405638	532.000000	
56.425359	549.000000	
56.445080	525.000000	
56.464802	506.000000	
56.484523	500.000000	
56.504244	531.000000	
56.523966	545.000000	
56.543687	531.000000	
56.563409	481.000000	
56.583130	496.000000	
56.602851	509.000000	
56.622573	515.000000	
56.642294	503.000000	
56.662015	487.000000	
56.681737	505.000000	
56.701458	516.000000	
56.721179	550.000000	
56.740901	508.000000	
56.760622	516.000000	
56.780344	524.000000	
56.800065	480.000000	
56.819786	487.000000	
56.839508	524.000000	
56.859229	546.000000	
56.878950	506.000000	
56.898672	510.000000	
56.918393	512.000000	
56.938114	484.000000	
56.957836	516.000000	
56.977557	497.000000	
56.997279	546.000000	
57.017000	518.000000	
57.036721	495.000000	
57.056443	498.000000	
57.076164	499.000000	
57.095885	512.000000	
57.115607	513.000000	
57.135328	512.000000	
57.155049	510.000000	
57.174771	527.000000	
57.194492	492.000000	
57.214214	468.000000	
57.233935	495.000000	
57.253656	503.000000	
57.273378	520.000000	
57.293099	492.000000	
57.312820	507.000000	
57.332542	568.000000	
57.352263	489.000000	
57.371984	528.000000	
57.391706	507.000000	
57.411427	527.000000	
57.431149	503.000000	
57.450870	474.000000	
57.470591	516.000000	
57.490313	564.000000	
57.510034	506.000000	
57.529755	498.000000	
57.549477	467.000000	
57.569198	530.000000	
57.588919	471.000000	
57.608641	555.000000	
57.628362	497.000000	
57.648084	499.000000	
57.667805	501.000000	
57.687526	551.000000	
57.707248	544.000000	
57.726969	536.000000	
57.746690	498.000000	
57.766412	494.000000	
57.786133	500.000000	
57.805854	517.000000	
57.825576	525.000000	
57.845297	505.000000	
57.865019	509.000000	
57.884740	506.000000	
57.904461	532.000000	
57.924183	535.000000	
57.943904	483.000000	
57.963625	519.000000	
57.983347	491.000000	
58.003068	491.000000	
58.022789	480.000000	
58.042511	521.000000	
58.062232	546.000000	
58.081954	494.000000	
58.101675	480.000000	
58.121396	497.000000	
58.141118	558.000000	
58.160839	503.000000	
58.180560	526.000000	
58.200282	478.000000	
58.220003	506.000000	
58.239724	503.000000	
58.259446	489.000000	
58.279167	517.000000	
58.298889	502.000000	
58.318610	465.000000	
58.338331	460.000000	
58.358053	523.000000	
58.377774	479.000000	
58.397495	520.000000	
58.417217	485.000000	
58.436938	556.000000	
58.456659	518.000000	
58.476381	495.000000	
58.496102	473.000000	
58.515824	498.000000	
58.535545	486.000000	
58.555266	534.000000	
58.574988	513.000000	
58.594709	519.000000	
58.614430	530.000000	
58.634152	491.000000	
58.653873	510.000000	
58.673594	507.000000	
58.693316	497.000000	
58.713037	489.000000	
58.732759	485.000000	
58.752480	463.000000	
58.772201	456.000000	
58.791923	495.000000	
58.811644	491.000000	
58.831365	492.000000	
58.851087	473.000000	
58.870808	490.000000	
58.890529	471.000000	
58.910251	496.000000	
58.929972	506.000000	
58.949694	506.000000	
58.969415	477.000000	
58.989136	483.000000	
59.008858	500.000000	
59.028579	512.000000	
59.048300	471.000000	
59.068022	485.000000	
59.087743	492.000000	
59.107464	492.000000	
59.127186	499.000000	
59.146907	506.000000	
59.166629	528.000000	
59.186350	502.000000	
59.206071	510.000000	
59.225793	529.000000	
59.245514	501.000000	
59.265235	518.000000	
59.284957	473.000000	
59.304678	515.000000	
59.324399	510.000000	
59.344121	468.000000	
59.363842	538.000000	
59.383564	519.000000	
59.403285	520.000000	
59.423006	485.000000	
59.442728	465.000000	
59.462449	506.000000	
59.482170	484.000000	
59.501892	533.000000	
59.521613	488.000000	
59.541334	490.000000	
59.561056	493.000000	
59.580777	505.000000	
59.600499	496.000000	
59.620220	504.000000	
59.639941	477.000000	
59.659663	451.000000	
59.679384	495.000000	
59.699105	461.000000	
59.718827	495.000000	
59.738548	469.000000	
59.758270	485.000000	
59.777991	484.000000	
59.797712	477.000000	
59.817434	491.000000	
59.837155	543.000000	
59.856876	450.000000	
59.876598	498.000000	
59.896319	510.000000	
59.916040	514.000000	
59.935762	509.000000	
59.955483	517.000000	
59.975205	503.000000	
59.994926	476.000000	
60.014647	472.000000	
60.034369	463.000000	
60.054090	528.000000	
60.073811	462.000000	
60.093533	499.000000	
60.113254	506.000000	
60.132975	477.000000	
60.152697	489.000000	
60.172418	497.000000	
60.192140	477.000000	
60.211861	514.000000	
60.231582	500.000000	
60.251304	457.000000	
60.271025	510.000000	
60.290746	520.000000	
60.310468	483.000000	
60.330189	512.000000	
60.349910	519.000000	
60.369632	464.000000	
60.389353	491.000000	
60.409075	498.000000	
60.428796	490.000000	
60.448517	481.000000	
60.468239	500.000000	
60.487960	486.000000	
60.507681	452.000000	
60.527403	435.000000	
60.547124	510.000000	
60.566845	488.000000	
60.586567	514.000000	
60.606288	551.000000	
60.626010	486.000000	
60.645731	466.000000	
60.665452	507.000000	
60.685174	507.000000	
60.704895	495.000000	
60.724616	502.000000	
60.744338	488.000000	
60.764059	457.000000	
60.783780	521.000000	
60.803502	534.000000	
60.823223	496.000000	
60.842945	483.000000	
60.862666	462.000000	
60.882387	507.000000	
60.902109	519.000000	
60.921830	476.000000	
60.941551	508.000000	
60.961273	508.000000	
60.980994	513.000000	
61.000715	468.000000	
61.020437	508.000000	
61.040158	497.000000	
61.059880	482.000000	
61.079601	476.000000	
61.099322	518.000000	
61.119044	514.000000	
61.138765	456.000000	
61.158486	482.000000	
61.178208	484.000000	
61.197929	520.000000	
61.217650	476.000000	
61.237372	510.000000	
61.257093	500.000000	
61.276815	470.000000	
61.296536	503.000000	
61.316257	484.000000	
61.335979	461.000000	
61.355700	476.000000	
61.375421	476.000000	
61.395143	475.000000	
61.414864	506.000000	
61.434585	500.000000	
61.454307	481.000000	
61.474028	507.000000	
61.493750	478.000000	
61.513471	474.000000	
61.533192	514.000000	
61.552914	473.000000	
61.572635	462.000000	
61.592356	513.000000	
61.612078	493.000000	
61.631799	474.000000	
61.651520	476.000000	
61.671242	496.000000	
61.690963	509.000000	
61.710685	517.000000	
61.730406	515.000000	
61.750127	512.000000	
61.769849	500.000000	
61.789570	483.000000	
61.809291	541.000000	
61.829013	517.000000	
61.848734	524.000000	
61.868455	523.000000	
61.888177	492.000000	
61.907898	438.000000	
61.927620	508.000000	
61.947341	490.000000	
61.967062	500.000000	
61.986784	483.000000	
62.006505	471.000000	
62.026226	442.000000	
62.045948	477.000000	
62.065669	473.000000	
62.085390	474.000000	
62.105112	527.000000	
62.124833	491.000000	
62.144555	505.000000	
62.164276	479.000000	
62.183997	508.000000	
62.203719	490.000000	
62.223440	529.000000	
62.243161	536.000000	
62.262883	510.000000	
62.282604	501.000000	
62.302325	493.000000	
62.322047	478.000000	
62.341768	499.000000	
62.361490	536.000000	
62.381211	495.000000	
62.400932	470.000000	
62.420654	495.000000	
62.440375	478.000000	
62.460096	469.000000	
62.479818	484.000000	
62.499539	498.000000	
62.519260	507.000000	
62.538982	481.000000	
62.558703	466.000000	
62.578425	540.000000	
62.598146	481.000000	
62.617867	470.000000	
62.637589	479.000000	
62.657310	512.000000	
62.677031	494.000000	
62.696753	508.000000	
62.716474	528.000000	
62.736195	502.000000	
62.755917	533.000000	
62.775638	494.000000	
62.795360	547.000000	
62.815081	499.000000	
62.834802	528.000000	
62.854524	554.000000	
62.874245	528.000000	
62.893966	492.000000	
62.913688	501.000000	
62.933409	521.000000	
62.953130	545.000000	
62.972852	504.000000	
62.992573	531.000000	
63.012295	521.000000	
63.032016	522.000000	
63.051737	547.000000	
63.071459	553.000000	
63.091180	487.000000	
63.110901	491.000000	
63.130623	574.000000	
63.150344	503.000000	
63.170065	467.000000	
63.189787	498.000000	
63.209508	519.000000	
63.229230	511.000000	
63.248951	462.000000	
63.268672	484.000000	
63.288394	508.000000	
63.308115	517.000000	
63.327836	505.000000	
63.347558	497.000000	
63.367279	517.000000	
63.387000	521.000000	
63.406722	519.000000	
63.426443	449.000000	
63.446165	501.000000	
63.465886	505.000000	
63.485607	451.000000	
63.505329	509.000000	
63.525050	480.000000	
63.544771	516.000000	
63.564493	472.000000	
63.584214	496.000000	
63.603935	478.000000	
63.623657	461.000000	
63.643378	467.000000	
63.663100	492.000000	
63.682821	509.000000	
63.702542	452.000000	
63.722264	486.000000	
63.741985	493.000000	
63.761706	456.000000	
63.781428	516.000000	
63.801149	503.000000	
63.820870	492.000000	
63.840592	439.000000	
63.860313	481.000000	
63.880035	494.000000	
63.899756	466.000000	
63.919477	508.000000	
63.939199	511.000000	
63.958920	490.000000	
63.978641	464.000000	
63.998363	485.000000	
64.018084	468.000000	
64.037805	488.000000	
64.057527	523.000000	
64.077248	523.000000	
64.096970	481.000000	
64.116691	455.000000	
64.136412	455.000000	
64.156134	476.000000	
64.175855	472.000000	
64.195576	487.000000	
64.215298	441.000000	
64.235019	470.000000	
64.254740	475.000000	
64.274462	502.000000	
64.294183	548.000000	
64.313905	480.000000	
64.333626	470.000000	
64.353347	497.000000	
64.373069	489.000000	
64.392790	474.000000	
64.412511	487.000000	
64.432233	495.000000	
64.451954	461.000000	
64.471675	464.000000	
64.491397	490.000000	
64.511118	493.000000	
64.530840	510.000000	
64.550561	482.000000	
64.570282	518.000000	
64.590004	502.000000	
64.609725	532.000000	
64.629446	458.000000	
64.649168	487.000000	
64.668889	511.000000	
64.688610	439.000000	
64.708332	500.000000	
64.728053	467.000000	
64.747775	539.000000	
64.767496	456.000000	
64.787217	436.000000	
64.806939	507.000000	
64.826660	505.000000	
64.846381	499.000000	
64.866103	465.000000	
64.885824	536.000000	
64.905545	491.000000	
64.925267	482.000000	
64.944988	487.000000	
64.964710	489.000000	
64.984431	430.000000	
65.004152	467.000000	
65.023874	497.000000	
65.043595	455.000000	
65.063316	453.000000	
65.083038	483.000000	
65.102759	491.000000	
65.122480	497.000000	
65.142202	505.000000	
65.161923	488.000000	
65.181645	503.000000	
65.201366	487.000000	
65.221087	504.000000	
65.240809	491.000000	
65.260530	500.000000	
65.280251	466.000000	
65.299973	502.000000	
65.319694	461.000000	
65.339415	451.000000	
65.359137	466.000000	
65.378858	503.000000	
65.398580	473.000000	
65.418301	444.000000	
65.438022	457.000000	
65.457744	472.000000	
65.477465	484.000000	
65.497186	491.000000	
65.516908	472.000000	
65.536629	452.000000	
65.556350	466.000000	
65.576072	454.000000	
65.595793	448.000000	
65.615515	445.000000	
65.635236	468.000000	
65.654957	459.000000	
65.674679	479.000000	
65.694400	502.000000	
65.714121	433.000000	
65.733843	457.000000	
65.753564	461.000000	
65.773285	481.000000	
65.793007	485.000000	
65.812728	475.000000	
65.832450	482.000000	
65.852171	460.000000	
65.871892	485.000000	
65.891614	452.000000	
65.911335	489.000000	
65.931056	475.000000	
65.950778	486.000000	
65.970499	447.000000	
65.990220	491.000000	
66.009942	495.000000	
66.029663	462.000000	
66.049385	485.000000	
66.069106	448.000000	
66.088827	457.000000	
66.108549	499.000000	
66.128270	475.000000	
66.147991	503.000000	
66.167713	468.000000	
66.187434	458.000000	
66.207155	495.000000	
66.226877	494.000000	
66.246598	488.000000	
66.266320	462.000000	
66.286041	491.000000	
66.305762	486.000000	
66.325484	451.000000	
66.345205	461.000000	
66.364926	485.000000	
66.384648	459.000000	
66.404369	502.000000	
66.424090	487.000000	
66.443812	503.000000	
66.463533	459.000000	
66.483255	505.000000	
66.502976	448.000000	
66.522697	454.000000	
66.542419	492.000000	
66.562140	462.000000	
66.581861	447.000000	
66.601583	468.000000	
66.621304	472.000000	
66.641025	483.000000	
66.660747	502.000000	
66.680468	445.000000	
66.700190	466.000000	
66.719911	515.000000	
66.739632	442.000000	
66.759354	478.000000	
66.779075	429.000000	
66.798796	492.000000	
66.818518	474.000000	
66.838239	456.000000	
66.857960	488.000000	
66.877682	440.000000	
66.897403	452.000000	
66.917125	496.000000	
66.936846	446.000000	
66.956567	465.000000	
66.976289	456.000000	
66.996010	494.000000	
67.015731	493.000000	
67.035453	458.000000	
67.055174	450.000000	
67.074895	439.000000	
67.094617	475.000000	
67.114338	481.000000	
67.134060	458.000000	
67.153781	473.000000	
67.173502	450.000000	
67.193224	496.000000	
67.212945	449.000000	
67.232666	445.000000	
67.252388	444.000000	
67.272109	488.000000	
67.291830	497.000000	
67.311552	450.000000	
67.331273	456.000000	
67.350995	521.000000	
67.370716	463.000000	
67.390437	463.000000	
67.410159	473.000000	
67.429880	472.000000	
67.449601	454.000000	
67.469323	497.000000	
67.489044	514.000000	
67.508765	423.000000	
67.528487	451.000000	
67.548208	469.000000	
67.567930	455.000000	
67.587651	445.000000	
67.607372	435.000000	
67.627094	487.000000	
67.646815	460.000000	
67.666536	443.000000	
67.686258	453.000000	
67.705979	471.000000	
67.725700	433.000000	
67.745422	469.000000	
67.765143	439.000000	
67.784865	490.000000	
67.804586	513.000000	
67.824307	459.000000	
67.844029	482.000000	
67.863750	490.000000	
67.883471	462.000000	
67.903193	452.000000	
67.922914	447.000000	
67.942635	466.000000	
67.962357	461.000000	
67.982078	472.000000	
68.001800	452.000000	
68.021521	455.000000	
68.041242	471.000000	
68.060964	451.000000	
68.080685	422.000000	
68.100406	456.000000	
68.120128	486.000000	
68.139849	451.000000	
68.159570	449.000000	
68.179292	438.000000	
68.199013	437.000000	
68.218735	455.000000	
68.238456	441.000000	
68.258177	481.000000	
68.277899	460.000000	
68.297620	438.000000	
68.317341	440.000000	
68.337063	433.000000	
68.356784	469.000000	
68.376505	433.000000	
68.396227	458.000000	
68.415948	464.000000	
68.435670	429.000000	
68.455391	439.000000	
68.475112	463.000000	
68.494834	464.000000	
68.514555	489.000000	
68.534276	517.000000	
68.553998	477.000000	
68.573719	451.000000	
68.593441	470.000000	
68.613162	462.000000	
68.632883	498.000000	
68.652605	460.000000	
68.672326	495.000000	
68.692047	457.000000	
68.711769	455.000000	
68.731490	457.000000	
68.751211	495.000000	
68.770933	457.000000	
68.790654	462.000000	
68.810376	481.000000	
68.830097	438.000000	
68.849818	477.000000	
68.869540	477.000000	
68.889261	484.000000	
68.908982	476.000000	
68.928704	481.000000	
68.948425	476.000000	
68.968146	473.000000	
68.987868	459.000000	
69.007589	470.000000	
69.027311	476.000000	
69.047032	469.000000	
69.066753	454.000000	
69.086475	462.000000	
69.106196	479.000000	
69.125917	429.000000	
69.145639	432.000000	
69.165360	398.000000	
69.185081	500.000000	
69.204803	451.000000	
69.224524	468.000000	
69.244246	429.000000	
69.263967	466.000000	
69.283688	489.000000	
69.303410	489.000000	
69.323131	438.000000	
69.342852	441.000000	
69.362574	469.000000	
69.382295	488.000000	
69.402016	429.000000	
69.421738	459.000000	
69.441459	452.000000	
69.461181	440.000000	
69.480902	471.000000	
69.500623	433.000000	
69.520345	443.000000	
69.540066	522.000000	
69.559787	457.000000	
69.579509	437.000000	
69.599230	491.000000	
69.618951	468.000000	
69.638673	467.000000	
69.658394	456.000000	
69.678116	449.000000	
69.697837	505.000000	
69.717558	417.000000	
69.737280	462.000000	
69.757001	449.000000	
69.776722	483.000000	
69.796444	437.000000	
69.816165	484.000000	
69.835886	441.000000	
69.855608	494.000000	
69.875329	423.000000	
69.895051	432.000000	
69.914772	453.000000	
69.934493	443.000000	
69.954215	488.000000	
69.973936	488.000000	
69.993657	460.000000	
70.013379	517.000000	
70.033100	450.000000	
70.052821	475.000000	
70.072543	438.000000	
70.092264	496.000000	
70.111986	475.000000	
70.131707	407.000000	
70.151428	454.000000	
70.171150	466.000000	
70.190871	490.000000	
70.210592	475.000000	
70.230314	450.000000	
70.250035	480.000000	
70.269756	443.000000	
70.289478	424.000000	
70.309199	456.000000	
70.328921	463.000000	
70.348642	440.000000	
70.368363	434.000000	
70.388085	438.000000	
70.407806	462.000000	
70.427527	455.000000	
70.447249	421.000000	
70.466970	464.000000	
70.486691	481.000000	
70.506413	454.000000	
70.526134	469.000000	
70.545856	488.000000	
70.565577	424.000000	
70.585298	419.000000	
70.605020	436.000000	
70.624741	405.000000	
70.644462	471.000000	
70.664184	434.000000	
70.683905	462.000000	
70.703626	457.000000	
70.723348	410.000000	
70.743069	451.000000	
70.762791	497.000000	
70.782512	418.000000	
70.802233	453.000000	
70.821955	481.000000	
70.841676	460.000000	
70.861397	463.000000	
70.881119	412.000000	
70.900840	449.000000	
70.920561	454.000000	
70.940283	441.000000	
70.960004	449.000000	
70.979726	460.000000	
70.999447	462.000000	
71.019168	455.000000	
71.038890	432.000000	
71.058611	446.000000	
71.078332	435.000000	
71.098054	444.000000	
71.117775	486.000000	
71.137496	446.000000	
71.157218	428.000000	
71.176939	456.000000	
71.196661	461.000000	
71.216382	474.000000	
71.236103	473.000000	
71.255825	479.000000	
71.275546	467.000000	
71.295267	457.000000	
71.314989	439.000000	
71.334710	485.000000	
71.354431	462.000000	
71.374153	482.000000	
71.393874	489.000000	
71.413596	415.000000	
71.433317	477.000000	
71.453038	450.000000	
71.472760	471.000000	
71.492481	457.000000	
71.512202	470.000000	
71.531924	455.000000	
71.551645	448.000000	
71.571366	469.000000	
71.591088	450.000000	
71.610809	469.000000	
71.630531	420.000000	
71.650252	426.000000	
71.669973	442.000000	
71.689695	456.000000	
71.709416	426.000000	
71.729137	450.000000	
71.748859	458.000000	
71.768580	422.000000	
71.788301	431.000000	
71.808023	469.000000	
71.827744	410.000000	
71.847466	464.000000	
71.867187	423.000000	
71.886908	451.000000	
71.906630	420.000000	
71.926351	439.000000	
71.946072	467.000000	
71.965794	477.000000	
71.985515	482.000000	
72.005236	455.000000	
72.024958	427.000000	
72.044679	476.000000	
72.064401	439.000000	
72.084122	449.000000	
72.103843	483.000000	
72.123565	444.000000	
72.143286	445.000000	
72.163007	442.000000	
72.182729	453.000000	
72.202450	457.000000	
72.222171	437.000000	
72.241893	483.000000	
72.261614	466.000000	
72.281336	438.000000	
72.301057	454.000000	
72.320778	499.000000	
72.340500	466.000000	
72.360221	452.000000	
72.379942	462.000000	
72.399664	462.000000	
72.419385	411.000000	
72.439106	443.000000	
72.458828	467.000000	
72.478549	469.000000	
72.498271	457.000000	
72.517992	457.000000	
72.537713	421.000000	
72.557435	445.000000	
72.577156	475.000000	
72.596877	486.000000	
72.616599	450.000000	
72.636320	449.000000	
72.656041	461.000000	
72.675763	475.000000	
72.695484	441.000000	
72.715206	450.000000	
72.734927	440.000000	
72.754648	453.000000	
72.774370	450.000000	
72.794091	449.000000	
72.813812	418.000000	
72.833534	429.000000	
72.853255	425.000000	
72.872976	442.000000	
72.892698	404.000000	
72.912419	435.000000	
72.932141	479.000000	
72.951862	431.000000	
72.971583	484.000000	
72.991305	483.000000	
73.011026	472.000000	
73.030747	459.000000	
73.050469	413.000000	
73.070190	486.000000	
73.089911	452.000000	
73.109633	449.000000	
73.129354	458.000000	
73.149076	504.000000	
73.168797	486.000000	
73.188518	403.000000	
73.208240	434.000000	
73.227961	464.000000	
73.247682	447.000000	
73.267404	452.000000	
73.287125	418.000000	
73.306846	405.000000	
73.326568	454.000000	
73.346289	464.000000	
73.366011	434.000000	
73.385732	493.000000	
73.405453	459.000000	
73.425175	474.000000	
73.444896	483.000000	
73.464617	429.000000	
73.484339	483.000000	
73.504060	446.000000	
73.523781	396.000000	
73.543503	460.000000	
73.563224	428.000000	
73.582946	433.000000	
73.602667	432.000000	
73.622388	448.000000	
73.642110	448.000000	
73.661831	432.000000	
73.681552	428.000000	
73.701274	408.000000	
73.720995	418.000000	
73.740716	472.000000	
73.760438	467.000000	
73.780159	471.000000	
73.799881	484.000000	
73.819602	427.000000	
73.839323	486.000000	
73.859045	453.000000	
73.878766	454.000000	
73.898487	448.000000	
73.918209	412.000000	
73.937930	439.000000	
73.957651	462.000000	
73.977373	441.000000	
73.997094	466.000000	
74.016816	445.000000	
74.036537	445.000000	
74.056258	468.000000	
74.075980	454.000000	
74.095701	461.000000	
74.115422	452.000000	
74.135144	444.000000	
74.154865	482.000000	
74.174586	469.000000	
74.194308	463.000000	
74.214029	448.000000	
74.233751	438.000000	
74.253472	468.000000	
74.273193	473.000000	
74.292915	429.000000	
74.312636	461.000000	
74.332357	442.000000	
74.352079	453.000000	
74.371800	444.000000	
74.391521	434.000000	
74.411243	428.000000	
74.430964	438.000000	
74.450686	456.000000	
74.470407	434.000000	
74.490128	452.000000	
74.509850	470.000000	
74.529571	462.000000	
74.549292	434.000000	
74.569014	458.000000	
74.588735	438.000000	
74.608456	454.000000	
74.628178	469.000000	
74.647899	443.000000	
74.667621	483.000000	
74.687342	478.000000	
74.707063	448.000000	
74.726785	450.000000	
74.746506	429.000000	
74.766227	419.000000	
74.785949	408.000000	
74.805670	436.000000	
74.825391	468.000000	
74.845113	460.000000	
74.864834	454.000000	
74.884556	495.000000	
74.904277	470.000000	
74.923998	475.000000	
74.943720	451.000000	
74.963441	458.000000	
74.983162	460.000000	
75.002884	470.000000	
75.022605	449.000000	
75.042326	452.000000	
75.062048	429.000000	
75.081769	487.000000	
75.101491	420.000000	
75.121212	476.000000	
75.140933	473.000000	
75.160655	480.000000	
75.180376	459.000000	
75.200097	461.000000	
75.219819	513.000000	
75.239540	477.000000	
75.259261	494.000000	
75.278983	448.000000	
75.298704	494.000000	
75.318426	481.000000	
75.338147	489.000000	
75.357868	438.000000	
75.377590	489.000000	
75.397311	486.000000	
75.417032	499.000000	
75.436754	552.000000	
75.456475	542.000000	
75.476196	544.000000	
75.495918	621.000000	
75.515639	618.000000	
75.535361	712.000000	
75.555082	927.000000	
75.574803	1192.000000	
75.594525	1513.000000	
75.614246	1800.000000	
75.633967	1710.000000	
75.653689	1500.000000	
75.673410	1365.000000	
75.693131	1283.000000	
75.712853	1305.000000	
75.732574	1395.000000	
75.752296	1444.000000	
75.772017	1465.000000	
75.791738	1617.000000	
75.811460	1570.000000	
75.831181	1485.000000	
75.850902	1356.000000	
75.870624	1263.000000	
75.890345	1021.000000	
75.910066	1034.000000	
75.929788	971.000000	
75.949509	898.000000	
75.969231	943.000000	
75.988952	958.000000	
76.008673	905.000000	
76.028395	829.000000	
76.048116	717.000000	
76.067837	681.000000	
76.087559	562.000000	
76.107280	556.000000	
76.127001	530.000000	
76.146723	474.000000	
76.166444	493.000000	
76.186166	510.000000	
76.205887	486.000000	
76.225608	475.000000	
76.245330	498.000000	
76.265051	452.000000	
76.284772	453.000000	
76.304494	460.000000	
76.324215	464.000000	
76.343936	477.000000	
76.363658	494.000000	
76.383379	470.000000	
76.403101	434.000000	
76.422822	470.000000	
76.442543	439.000000	
76.462265	447.000000	
76.481986	475.000000	
76.501707	474.000000	
76.521429	470.000000	
76.541150	438.000000	
76.560871	434.000000	
76.580593	426.000000	
76.600314	426.000000	
76.620036	429.000000	
76.639757	433.000000	
76.659478	434.000000	
76.679200	456.000000	
76.698921	403.000000	
76.718642	475.000000	
76.738364	414.000000	
76.758085	484.000000	
76.777806	422.000000	
76.797528	430.000000	
76.817249	468.000000	
76.836971	463.000000	
76.856692	450.000000	
76.876413	405.000000	
76.896135	424.000000	
76.915856	429.000000	
76.935577	443.000000	
76.955299	440.000000	
76.975020	433.000000	
76.994741	453.000000	
77.014463	435.000000	
77.034184	420.000000	
77.053906	498.000000	
77.073627	456.000000	
77.093348	413.000000	
77.113070	419.000000	
77.132791	464.000000	
77.152512	432.000000	
77.172234	487.000000	
77.191955	440.000000	
77.211676	468.000000	
77.231398	415.000000	
77.251119	441.000000	
77.270841	451.000000	
77.290562	426.000000	
77.310283	396.000000	
77.330005	441.000000	
77.349726	424.000000	
77.369447	442.000000	
77.389169	438.000000	
77.408890	478.000000	
77.428612	380.000000	
77.448333	466.000000	
77.468054	401.000000	
77.487776	439.000000	
77.507497	424.000000	
77.527218	426.000000	
77.546940	390.000000	
77.566661	463.000000	
77.586382	445.000000	
77.606104	427.000000	
77.625825	406.000000	
77.645547	431.000000	
77.665268	440.000000	
77.684989	456.000000	
77.704711	481.000000	
77.724432	463.000000	
77.744153	421.000000	
77.763875	406.000000	
77.783596	464.000000	
77.803317	459.000000	
77.823039	397.000000	
77.842760	420.000000	
77.862482	418.000000	
77.882203	456.000000	
77.901924	422.000000	
77.921646	448.000000	
77.941367	395.000000	
77.961088	401.000000	
77.980810	437.000000	
78.000531	446.000000	
78.020252	459.000000	
78.039974	423.000000	
78.059695	413.000000	
78.079417	418.000000	
78.099138	428.000000	
78.118859	420.000000	
78.138581	433.000000	
78.158302	416.000000	
78.178023	469.000000	
78.197745	445.000000	
78.217466	448.000000	
78.237187	404.000000	
78.256909	401.000000	
78.276630	428.000000	
78.296352	424.000000	
78.316073	457.000000	
78.335794	415.000000	
78.355516	439.000000	
78.375237	439.000000	
78.394958	462.000000	
78.414680	442.000000	
78.434401	458.000000	
78.454122	438.000000	
78.473844	441.000000	
78.493565	459.000000	
78.513287	407.000000	
78.533008	435.000000	
78.552729	399.000000	
78.572451	443.000000	
78.592172	446.000000	
78.611893	455.000000	
78.631615	443.000000	
78.651336	414.000000	
78.671057	414.000000	
78.690779	416.000000	
78.710500	456.000000	
78.730222	420.000000	
78.749943	402.000000	
78.769664	456.000000	
78.789386	458.000000	
78.809107	417.000000	
78.828828	422.000000	
78.848550	386.000000	
78.868271	435.000000	
78.887992	461.000000	
78.907714	416.000000	
78.927435	432.000000	
78.947157	458.000000	
78.966878	432.000000	
78.986599	424.000000	
79.006321	451.000000	
79.026042	424.000000	
79.045763	405.000000	
79.065485	417.000000	
79.085206	391.000000	
79.104927	452.000000	
79.124649	409.000000	
79.144370	410.000000	
79.164092	449.000000	
79.183813	441.000000	
79.203534	426.000000	
79.223256	416.000000	
79.242977	448.000000	
79.262698	404.000000	
79.282420	414.000000	
79.302141	435.000000	
79.321862	442.000000	
79.341584	473.000000	
79.361305	421.000000	
79.381027	443.000000	
79.400748	458.000000	
79.420469	430.000000	
79.440191	445.000000	
79.459912	430.000000	
79.479633	418.000000	
79.499355	436.000000	
79.519076	438.000000	
79.538797	451.000000	
79.558519	430.000000	
79.578240	429.000000	
79.597962	439.000000	
79.617683	438.000000	
79.637404	412.000000	
79.657126	396.000000	
79.676847	412.000000	
79.696568	480.000000	
79.716290	460.000000	
79.736011	436.000000	
79.755732	418.000000	
79.775454	411.000000	
79.795175	440.000000	
79.814897	445.000000	
79.834618	408.000000	
79.854339	437.000000	
79.874061	407.000000	
79.893782	445.000000	
79.913503	422.000000	
79.933225	398.000000	
79.952946	413.000000	
79.972667	415.000000	
79.992389	443.000000	
80.012110	444.000000	
80.031832	437.000000	
80.051553	421.000000	
80.071274	440.000000	
80.090996	450.000000	
80.110717	394.000000	
80.130438	455.000000	
80.150160	386.000000	
80.169881	450.000000	
80.189602	443.000000	
80.209324	401.000000	
80.229045	444.000000	
80.248767	439.000000	
80.268488	427.000000	
80.288209	418.000000	
80.307931	363.000000	
80.327652	451.000000	
80.347373	417.000000	
80.367095	421.000000	
80.386816	442.000000	
80.406537	407.000000	
80.426259	390.000000	
80.445980	386.000000	
80.465702	419.000000	
80.485423	444.000000	
80.505144	426.000000	
80.524866	440.000000	
80.544587	442.000000	
80.564308	429.000000	
80.584030	440.000000	
80.603751	437.000000	
80.623472	410.000000	
80.643194	453.000000	
80.662915	420.000000	
80.682637	445.000000	
80.702358	424.000000	
80.722079	372.000000	
80.741801	453.000000	
80.761522	409.000000	
80.781243	393.000000	
80.800965	413.000000	
80.820686	382.000000	
80.840407	447.000000	
80.860129	409.000000	
80.879850	420.000000	
80.899572	396.000000	
80.919293	416.000000	
80.939014	406.000000	
80.958736	409.000000	
80.978457	412.000000	
80.998178	415.000000	
81.017900	410.000000	
81.037621	430.000000	
81.057342	421.000000	
81.077064	435.000000	
81.096785	403.000000	
81.116507	415.000000	
81.136228	411.000000	
81.155949	422.000000	
81.175671	407.000000	
81.195392	419.000000	
81.215113	445.000000	
81.234835	425.000000	
81.254556	428.000000	
81.274277	408.000000	
81.293999	395.000000	
81.313720	438.000000	
81.333442	427.000000	
81.353163	408.000000	
81.372884	436.000000	
81.392606	442.000000	
81.412327	456.000000	
81.432048	431.000000	
81.451770	426.000000	
81.471491	414.000000	
81.491212	451.000000	
81.510934	426.000000	
81.530655	430.000000	
81.550377	443.000000	
81.570098	430.000000	
81.589819	388.000000	
81.609541	418.000000	
81.629262	395.000000	
81.648983	402.000000	
81.668705	445.000000	
81.688426	452.000000	
81.708147	404.000000	
81.727869	380.000000	
81.747590	393.000000	
81.767312	368.000000	
81.787033	454.000000	
81.806754	417.000000	
81.826476	428.000000	
81.846197	388.000000	
81.865918	410.000000	
81.885640	359.000000	
81.905361	433.000000	
81.925082	416.000000	
81.944804	414.000000	
81.964525	415.000000	
81.984247	433.000000	
82.003968	383.000000	
82.023689	436.000000	
82.043411	414.000000	
82.063132	371.000000	
82.082853	395.000000	
82.102575	402.000000	
82.122296	417.000000	
82.142017	420.000000	
82.161739	437.000000	
82.181460	417.000000	
82.201182	408.000000	
82.220903	459.000000	
82.240624	385.000000	
82.260346	425.000000	
82.280067	391.000000	
82.299788	390.000000	
82.319510	424.000000	
82.339231	414.000000	
82.358952	394.000000	
82.378674	420.000000	
82.398395	424.000000	
82.418117	438.000000	
82.437838	446.000000	
82.457559	417.000000	
82.477281	452.000000	
82.497002	408.000000	
82.516723	404.000000	
82.536445	413.000000	
82.556166	444.000000	
82.575887	413.000000	
82.595609	417.000000	
82.615330	405.000000	
82.635052	421.000000	
82.654773	420.000000	
82.674494	409.000000	
82.694216	417.000000	
82.713937	395.000000	
82.733658	426.000000	
82.753380	464.000000	
82.773101	412.000000	
82.792822	407.000000	
82.812544	403.000000	
82.832265	410.000000	
82.851987	415.000000	
82.871708	420.000000	
82.891429	411.000000	
82.911151	416.000000	
82.930872	406.000000	
82.950593	442.000000	
82.970315	407.000000	
82.990036	441.000000	
83.009757	381.000000	
83.029479	423.000000	
83.049200	432.000000	
83.068922	406.000000	
83.088643	412.000000	
83.108364	410.000000	
83.128086	415.000000	
83.147807	388.000000	
83.167528	450.000000	
83.187250	414.000000	
83.206971	434.000000	
83.226692	428.000000	
83.246414	431.000000	
83.266135	420.000000	
83.285857	433.000000	
83.305578	431.000000	
83.325299	411.000000	
83.345021	410.000000	
83.364742	400.000000	
83.384463	409.000000	
83.404185	421.000000	
83.423906	453.000000	
83.443627	413.000000	
83.463349	368.000000	
83.483070	423.000000	
83.502792	452.000000	
83.522513	396.000000	
83.542234	393.000000	
83.561956	440.000000	
83.581677	418.000000	
83.601398	396.000000	
83.621120	411.000000	
83.640841	408.000000	
83.660562	393.000000	
83.680284	384.000000	
83.700005	393.000000	
83.719727	408.000000	
83.739448	420.000000	
83.759169	431.000000	
83.778891	365.000000	
83.798612	440.000000	
83.818333	409.000000	
83.838055	420.000000	
83.857776	412.000000	
83.877497	399.000000	
83.897219	406.000000	
83.916940	448.000000	
83.936662	397.000000	
83.956383	456.000000	
83.976104	417.000000	
83.995826	389.000000	
84.015547	447.000000	
84.035268	402.000000	
84.054990	403.000000	
84.074711	416.000000	
84.094432	388.000000	
84.114154	408.000000	
84.133875	392.000000	
84.153597	401.000000	
84.173318	463.000000	
84.193039	425.000000	
84.212761	372.000000	
84.232482	407.000000	
84.252203	409.000000	
84.271925	416.000000	
84.291646	425.000000	
84.311367	446.000000	
84.331089	418.000000	
84.350810	410.000000	
84.370532	457.000000	
84.390253	391.000000	
84.409974	410.000000	
84.429696	385.000000	
84.449417	441.000000	
84.469138	378.000000	
84.488860	407.000000	
84.508581	430.000000	
84.528302	402.000000	
84.548024	431.000000	
84.567745	435.000000	
84.587467	397.000000	
84.607188	395.000000	
84.626909	451.000000	
84.646631	423.000000	
84.666352	421.000000	
84.686073	426.000000	
84.705795	419.000000	
84.725516	391.000000	
84.745237	411.000000	
84.764959	401.000000	
84.784680	392.000000	
84.804402	371.000000	
84.824123	401.000000	
84.843844	379.000000	
84.863566	363.000000	
84.883287	432.000000	
84.903008	409.000000	
84.922730	384.000000	
84.942451	401.000000	
84.962172	397.000000	
84.981894	422.000000	
85.001615	408.000000	
85.021337	452.000000	
85.041058	417.000000	
85.060779	393.000000	
85.080501	442.000000	
85.100222	389.000000	
85.119943	409.000000	
85.139665	424.000000	
85.159386	416.000000	
85.179107	401.000000	
85.198829	394.000000	
85.218550	385.000000	
85.238272	375.000000	
85.257993	408.000000	
85.277714	417.000000	
85.297436	425.000000	
85.317157	405.000000	
85.336878	423.000000	
85.356600	382.000000	
85.376321	412.000000	
85.396042	404.000000	
85.415764	389.000000	
85.435485	391.000000	
85.455207	391.000000	
85.474928	406.000000	
85.494649	399.000000	
85.514371	442.000000	
85.534092	363.000000	
85.553813	426.000000	
85.573535	395.000000	
85.593256	389.000000	
85.612977	400.000000	
85.632699	407.000000	
85.652420	427.000000	
85.672142	377.000000	
85.691863	379.000000	
85.711584	405.000000	
85.731306	369.000000	
85.751027	398.000000	
85.770748	418.000000	
85.790470	392.000000	
85.810191	434.000000	
85.829912	418.000000	
85.849634	417.000000	
85.869355	405.000000	
85.889077	386.000000	
85.908798	360.000000	
85.928519	369.000000	
85.948241	402.000000	
85.967962	424.000000	
85.987683	372.000000	
86.007405	382.000000	
86.027126	419.000000	
86.046848	378.000000	
86.066569	388.000000	
86.086290	391.000000	
86.106012	387.000000	
86.125733	367.000000	
86.145454	416.000000	
86.165176	455.000000	
86.184897	389.000000	
86.204618	389.000000	
86.224340	420.000000	
86.244061	393.000000	
86.263783	357.000000	
86.283504	427.000000	
86.303225	381.000000	
86.322947	404.000000	
86.342668	404.000000	
86.362389	417.000000	
86.382111	385.000000	
86.401832	378.000000	
86.421553	373.000000	
86.441275	376.000000	
86.460996	413.000000	
86.480718	400.000000	
86.500439	397.000000	
86.520160	392.000000	
86.539882	402.000000	
86.559603	395.000000	
86.579324	411.000000	
86.599046	367.000000	
86.618767	385.000000	
86.638488	412.000000	
86.658210	409.000000	
86.677931	361.000000	
86.697653	392.000000	
86.717374	346.000000	
86.737095	401.000000	
86.756817	376.000000	
86.776538	398.000000	
86.796259	408.000000	
86.815981	393.000000	
86.835702	395.000000	
86.855423	392.000000	
86.875145	407.000000	
86.894866	397.000000	
86.914588	392.000000	
86.934309	401.000000	
86.954030	361.000000	
86.973752	411.000000	
86.993473	402.000000	
87.013194	390.000000	
87.032916	426.000000	
87.052637	388.000000	
87.072358	343.000000	
87.092080	424.000000	
87.111801	377.000000	
87.131523	372.000000	
87.151244	386.000000	
87.170965	408.000000	
87.190687	399.000000	
87.210408	363.000000	
87.230129	389.000000	
87.249851	389.000000	
87.269572	375.000000	
87.289293	348.000000	
87.309015	390.000000	
87.328736	396.000000	
87.348458	399.000000	
87.368179	387.000000	
87.387900	377.000000	
87.407622	385.000000	
87.427343	383.000000	
87.447064	400.000000	
87.466786	406.000000	
87.486507	387.000000	
87.506228	392.000000	
87.525950	380.000000	
87.545671	391.000000	
87.565393	381.000000	
87.585114	400.000000	
87.604835	385.000000	
87.624557	393.000000	
87.644278	390.000000	
87.663999	392.000000	
87.683721	355.000000	
87.703442	388.000000	
87.723163	390.000000	
87.742885	371.000000	
87.762606	368.000000	
87.782328	375.000000	
87.802049	381.000000	
87.821770	376.000000	
87.841492	379.000000	
87.861213	409.000000	
87.880934	385.000000	
87.900656	395.000000	
87.920377	363.000000	
87.940098	380.000000	
87.959820	393.000000	
87.979541	400.000000	
87.999263	378.000000	
88.018984	368.000000	
88.038705	373.000000	
88.058427	371.000000	
88.078148	405.000000	
88.097869	399.000000	
88.117591	387.000000	
88.137312	398.000000	
88.157033	377.000000	
88.176755	363.000000	
88.196476	407.000000	
88.216198	391.000000	
88.235919	408.000000	
88.255640	383.000000	
88.275362	392.000000	
88.295083	386.000000	
88.314804	367.000000	
88.334526	400.000000	
88.354247	408.000000	
88.373968	377.000000	
88.393690	413.000000	
88.413411	396.000000	
88.433133	426.000000	
88.452854	377.000000	
88.472575	393.000000	
88.492297	380.000000	
88.512018	384.000000	
88.531739	427.000000	
88.551461	363.000000	
88.571182	392.000000	
88.590903	391.000000	
88.610625	373.000000	
88.630346	391.000000	
88.650068	378.000000	
88.669789	402.000000	
88.689510	413.000000	
88.709232	365.000000	
88.728953	379.000000	
88.748674	391.000000	
88.768396	417.000000	
88.788117	369.000000	
88.807838	389.000000	
88.827560	362.000000	
88.847281	361.000000	
88.867003	415.000000	
88.886724	393.000000	
88.906445	366.000000	
88.926167	408.000000	
88.945888	379.000000	
88.965609	462.000000	
88.985331	400.000000	
89.005052	426.000000	
89.024773	401.000000	
89.044495	427.000000	
89.064216	390.000000	
89.083938	387.000000	
89.103659	370.000000	
89.123380	391.000000	
89.143102	393.000000	
89.162823	379.000000	
89.182544	384.000000	
89.202266	402.000000	
89.221987	415.000000	
89.241708	368.000000	
89.261430	415.000000	
89.281151	365.000000	
89.300873	415.000000	
89.320594	364.000000	
89.340315	397.000000	
89.360037	361.000000	
89.379758	361.000000	
89.399479	413.000000	
89.419201	342.000000	
89.438922	416.000000	
89.458643	402.000000	
89.478365	431.000000	
89.498086	381.000000	
89.517808	438.000000	
89.537529	388.000000	
89.557250	383.000000	
89.576972	365.000000	
89.596693	395.000000	
89.616414	367.000000	
89.636136	364.000000	
89.655857	362.000000	
89.675578	388.000000	
89.695300	367.000000	
89.715021	390.000000	
89.734743	386.000000	
89.754464	395.000000	
89.774185	388.000000	
89.793907	377.000000	
89.813628	355.000000	
89.833349	377.000000	
89.853071	420.000000	
89.872792	397.000000	
89.892513	409.000000	
89.912235	388.000000	
89.931956	412.000000	
89.951678	412.000000	
89.971399	395.000000	
89.991120	394.000000	
