;content of D:\data\result\mecham\???\20231225-89741\690-07.raw - (Diffrac Plus V4 file)
_FILEVERSION = 3
_SAMPLE
_+SAMPLE
_USER = Lab Manager
_GONIOMETER_CODE = 21
_STAGE_CODE = 7
; Goniometer : D8 theta/theta, stage : Chi drive
_SAMPLE_CHANGER_CODE = 0
_ATTACHMENTS_CODE = 0
_GONIOMETER_RADIUS = 280
_MONOCHROMATOR = 0
; Incident beam monochromator : None
_BETA_FILTER = N
_ANALYZER_CODE = 0
; Received beam analyzer : None
_DATEMEASURED = 25-Dec-2023 11:22:40
_RUNTIME = 11.18933
_WL_UNIT = A
_WL1 = 1.5406
_WL2 = 1.54439
_WL3 = 1.39222
_WLRATIO = 0.5
_ANODE = Cu
_V4_INF_USER = Lab Manager
_V4_INF_CREATOR = V5Converter
_V4_INF_CREATOR_VERSION = 4.4.16.0

; Data for range 1
_DRIVE = COUPLED
_STEPTIME = 57.6
_STEPSIZE = 0.019721
_STEPMODE = C
_START = 20
_THETA = 10
_2THETA = 20
_KHI = 0
_PHI = 0
_DETECTORSLIT = out
_AUX1 = 0
_TIMESTARTED = 0
_KV = 40
_MA = 40
_RANGE_WL = 1.5406
_3DPLANE = 0
_V4_PSD2THETA = 9999
_V4_PSDCHANNEL1 = 0
_V4_PSDAPERTURE = 2.839876
_V4_PSDTYPE = 5
_V4_PSDFIXED = 0
_V4_COUNTERS_MASK = 1
_V4_DRIVES_MASK = 0
_V4_ENCODERS_MASK = 0
_2THETACOUNTS = 1
; 2THETA	Cnt2_D1	
20.000000	509.000000	
20.019721	489.000000	
20.039443	505.000000	
20.059164	436.000000	
20.078885	525.000000	
20.098607	502.000000	
20.118328	505.000000	
20.138050	473.000000	
20.157771	465.000000	
20.177492	542.000000	
20.197214	531.000000	
20.216935	541.000000	
20.236656	541.000000	
20.256378	463.000000	
20.276099	498.000000	
20.295820	487.000000	
20.315542	535.000000	
20.335263	533.000000	
20.354985	508.000000	
20.374706	492.000000	
20.394427	500.000000	
20.414149	517.000000	
20.433870	495.000000	
20.453591	461.000000	
20.473313	512.000000	
20.493034	492.000000	
20.512755	478.000000	
20.532477	478.000000	
20.552198	509.000000	
20.571920	498.000000	
20.591641	458.000000	
20.611362	440.000000	
20.631084	504.000000	
20.650805	477.000000	
20.670526	486.000000	
20.690248	502.000000	
20.709969	501.000000	
20.729690	465.000000	
20.749412	479.000000	
20.769133	522.000000	
20.788855	533.000000	
20.808576	445.000000	
20.828297	502.000000	
20.848019	495.000000	
20.867740	531.000000	
20.887461	510.000000	
20.907183	518.000000	
20.926904	474.000000	
20.946625	464.000000	
20.966347	497.000000	
20.986068	501.000000	
21.005790	495.000000	
21.025511	501.000000	
21.045232	502.000000	
21.064954	468.000000	
21.084675	482.000000	
21.104396	476.000000	
21.124118	498.000000	
21.143839	507.000000	
21.163560	494.000000	
21.183282	467.000000	
21.203003	519.000000	
21.222725	473.000000	
21.242446	472.000000	
21.262167	484.000000	
21.281889	458.000000	
21.301610	479.000000	
21.321331	492.000000	
21.341053	481.000000	
21.360774	488.000000	
21.380495	506.000000	
21.400217	502.000000	
21.419938	440.000000	
21.439660	546.000000	
21.459381	495.000000	
21.479102	470.000000	
21.498824	505.000000	
21.518545	503.000000	
21.538266	469.000000	
21.557988	507.000000	
21.577709	558.000000	
21.597430	480.000000	
21.617152	484.000000	
21.636873	478.000000	
21.656595	492.000000	
21.676316	523.000000	
21.696037	496.000000	
21.715759	504.000000	
21.735480	474.000000	
21.755201	443.000000	
21.774923	469.000000	
21.794644	497.000000	
21.814365	482.000000	
21.834087	469.000000	
21.853808	495.000000	
21.873530	477.000000	
21.893251	496.000000	
21.912972	472.000000	
21.932694	459.000000	
21.952415	472.000000	
21.972136	487.000000	
21.991858	525.000000	
22.011579	456.000000	
22.031300	501.000000	
22.051022	501.000000	
22.070743	510.000000	
22.090465	494.000000	
22.110186	487.000000	
22.129907	494.000000	
22.149629	484.000000	
22.169350	473.000000	
22.189071	486.000000	
22.208793	472.000000	
22.228514	521.000000	
22.248235	496.000000	
22.267957	503.000000	
22.287678	498.000000	
22.307400	498.000000	
22.327121	462.000000	
22.346842	481.000000	
22.366564	505.000000	
22.386285	468.000000	
22.406006	487.000000	
22.425728	475.000000	
22.445449	485.000000	
22.465170	496.000000	
22.484892	478.000000	
22.504613	491.000000	
22.524335	490.000000	
22.544056	469.000000	
22.563777	460.000000	
22.583499	458.000000	
22.603220	499.000000	
22.622941	485.000000	
22.642663	509.000000	
22.662384	494.000000	
22.682105	456.000000	
22.701827	466.000000	
22.721548	508.000000	
22.741270	479.000000	
22.760991	480.000000	
22.780712	478.000000	
22.800434	508.000000	
22.820155	464.000000	
22.839876	461.000000	
22.859598	500.000000	
22.879319	472.000000	
22.899040	480.000000	
22.918762	489.000000	
22.938483	457.000000	
22.958205	511.000000	
22.977926	483.000000	
22.997647	485.000000	
23.017369	540.000000	
23.037090	504.000000	
23.056811	516.000000	
23.076533	480.000000	
23.096254	492.000000	
23.115975	495.000000	
23.135697	478.000000	
23.155418	496.000000	
23.175140	501.000000	
23.194861	492.000000	
23.214582	493.000000	
23.234304	468.000000	
23.254025	456.000000	
23.273746	514.000000	
23.293468	496.000000	
23.313189	461.000000	
23.332910	470.000000	
23.352632	498.000000	
23.372353	486.000000	
23.392075	495.000000	
23.411796	518.000000	
23.431517	485.000000	
23.451239	512.000000	
23.470960	484.000000	
23.490681	461.000000	
23.510403	468.000000	
23.530124	496.000000	
23.549845	456.000000	
23.569567	473.000000	
23.589288	476.000000	
23.609010	485.000000	
23.628731	488.000000	
23.648452	495.000000	
23.668174	506.000000	
23.687895	524.000000	
23.707616	459.000000	
23.727338	489.000000	
23.747059	492.000000	
23.766780	503.000000	
23.786502	480.000000	
23.806223	496.000000	
23.825945	485.000000	
23.845666	501.000000	
23.865387	511.000000	
23.885109	522.000000	
23.904830	476.000000	
23.924551	504.000000	
23.944273	495.000000	
23.963994	514.000000	
23.983715	470.000000	
24.003437	498.000000	
24.023158	484.000000	
24.042880	497.000000	
24.062601	500.000000	
24.082322	497.000000	
24.102044	496.000000	
24.121765	493.000000	
24.141486	546.000000	
24.161208	489.000000	
24.180929	522.000000	
24.200650	557.000000	
24.220372	524.000000	
24.240093	547.000000	
24.259815	594.000000	
24.279536	569.000000	
24.299257	574.000000	
24.318979	582.000000	
24.338700	600.000000	
24.358421	625.000000	
24.378143	622.000000	
24.397864	638.000000	
24.417586	654.000000	
24.437307	668.000000	
24.457028	772.000000	
24.476750	767.000000	
24.496471	771.000000	
24.516192	746.000000	
24.535914	754.000000	
24.555635	730.000000	
24.575356	704.000000	
24.595078	644.000000	
24.614799	627.000000	
24.634521	555.000000	
24.654242	614.000000	
24.673963	527.000000	
24.693685	547.000000	
24.713406	569.000000	
24.733127	513.000000	
24.752849	493.000000	
24.772570	545.000000	
24.792291	497.000000	
24.812013	497.000000	
24.831734	464.000000	
24.851456	487.000000	
24.871177	456.000000	
24.890898	504.000000	
24.910620	508.000000	
24.930341	479.000000	
24.950062	467.000000	
24.969784	502.000000	
24.989505	495.000000	
25.009226	480.000000	
25.028948	474.000000	
25.048669	548.000000	
25.068391	491.000000	
25.088112	470.000000	
25.107833	520.000000	
25.127555	473.000000	
25.147276	508.000000	
25.166997	533.000000	
25.186719	493.000000	
25.206440	552.000000	
25.226161	485.000000	
25.245883	498.000000	
25.265604	508.000000	
25.285326	534.000000	
25.305047	507.000000	
25.324768	469.000000	
25.344490	469.000000	
25.364211	477.000000	
25.383932	485.000000	
25.403654	487.000000	
25.423375	448.000000	
25.443096	534.000000	
25.462818	460.000000	
25.482539	522.000000	
25.502261	428.000000	
25.521982	479.000000	
25.541703	518.000000	
25.561425	528.000000	
25.581146	485.000000	
25.600867	470.000000	
25.620589	460.000000	
25.640310	464.000000	
25.660031	479.000000	
25.679753	519.000000	
25.699474	462.000000	
25.719196	491.000000	
25.738917	494.000000	
25.758638	481.000000	
25.778360	514.000000	
25.798081	463.000000	
25.817802	493.000000	
25.837524	444.000000	
25.857245	459.000000	
25.876966	467.000000	
25.896688	501.000000	
25.916409	493.000000	
25.936131	498.000000	
25.955852	529.000000	
25.975573	452.000000	
25.995295	498.000000	
26.015016	470.000000	
26.034737	472.000000	
26.054459	481.000000	
26.074180	473.000000	
26.093901	449.000000	
26.113623	431.000000	
26.133344	501.000000	
26.153066	473.000000	
26.172787	455.000000	
26.192508	494.000000	
26.212230	504.000000	
26.231951	497.000000	
26.251672	505.000000	
26.271394	467.000000	
26.291115	441.000000	
26.310836	482.000000	
26.330558	470.000000	
26.350279	489.000000	
26.370001	464.000000	
26.389722	465.000000	
26.409443	491.000000	
26.429165	472.000000	
26.448886	512.000000	
26.468607	493.000000	
26.488329	421.000000	
26.508050	497.000000	
26.527771	479.000000	
26.547493	483.000000	
26.567214	488.000000	
26.586936	429.000000	
26.606657	501.000000	
26.626378	510.000000	
26.646100	515.000000	
26.665821	514.000000	
26.685542	497.000000	
26.705264	482.000000	
26.724985	463.000000	
26.744706	452.000000	
26.764428	483.000000	
26.784149	497.000000	
26.803871	497.000000	
26.823592	465.000000	
26.843313	546.000000	
26.863035	492.000000	
26.882756	509.000000	
26.902477	489.000000	
26.922199	501.000000	
26.941920	484.000000	
26.961641	461.000000	
26.981363	450.000000	
27.001084	491.000000	
27.020806	459.000000	
27.040527	431.000000	
27.060248	523.000000	
27.079970	481.000000	
27.099691	457.000000	
27.119412	461.000000	
27.139134	498.000000	
27.158855	455.000000	
27.178576	501.000000	
27.198298	454.000000	
27.218019	488.000000	
27.237741	526.000000	
27.257462	483.000000	
27.277183	501.000000	
27.296905	514.000000	
27.316626	480.000000	
27.336347	467.000000	
27.356069	521.000000	
27.375790	495.000000	
27.395511	462.000000	
27.415233	494.000000	
27.434954	463.000000	
27.454676	467.000000	
27.474397	453.000000	
27.494118	463.000000	
27.513840	449.000000	
27.533561	457.000000	
27.553282	485.000000	
27.573004	483.000000	
27.592725	500.000000	
27.612446	513.000000	
27.632168	476.000000	
27.651889	497.000000	
27.671611	486.000000	
27.691332	479.000000	
27.711053	476.000000	
27.730775	489.000000	
27.750496	521.000000	
27.770217	461.000000	
27.789939	435.000000	
27.809660	519.000000	
27.829381	481.000000	
27.849103	487.000000	
27.868824	479.000000	
27.888546	471.000000	
27.908267	475.000000	
27.927988	480.000000	
27.947710	527.000000	
27.967431	449.000000	
27.987152	452.000000	
28.006874	493.000000	
28.026595	533.000000	
28.046316	493.000000	
28.066038	448.000000	
28.085759	482.000000	
28.105481	430.000000	
28.125202	498.000000	
28.144923	455.000000	
28.164645	538.000000	
28.184366	470.000000	
28.204087	482.000000	
28.223809	444.000000	
28.243530	488.000000	
28.263251	514.000000	
28.282973	490.000000	
28.302694	502.000000	
28.322416	491.000000	
28.342137	447.000000	
28.361858	523.000000	
28.381580	461.000000	
28.401301	490.000000	
28.421022	465.000000	
28.440744	491.000000	
28.460465	451.000000	
28.480186	488.000000	
28.499908	474.000000	
28.519629	517.000000	
28.539351	488.000000	
28.559072	460.000000	
28.578793	504.000000	
28.598515	479.000000	
28.618236	489.000000	
28.637957	488.000000	
28.657679	477.000000	
28.677400	470.000000	
28.697121	445.000000	
28.716843	452.000000	
28.736564	465.000000	
28.756286	492.000000	
28.776007	496.000000	
28.795728	448.000000	
28.815450	463.000000	
28.835171	466.000000	
28.854892	471.000000	
28.874614	487.000000	
28.894335	486.000000	
28.914056	448.000000	
28.933778	435.000000	
28.953499	491.000000	
28.973221	464.000000	
28.992942	494.000000	
29.012663	491.000000	
29.032385	485.000000	
29.052106	484.000000	
29.071827	510.000000	
29.091549	456.000000	
29.111270	454.000000	
29.130991	425.000000	
29.150713	476.000000	
29.170434	460.000000	
29.190156	510.000000	
29.209877	492.000000	
29.229598	466.000000	
29.249320	397.000000	
29.269041	450.000000	
29.288762	431.000000	
29.308484	486.000000	
29.328205	475.000000	
29.347926	502.000000	
29.367648	491.000000	
29.387369	483.000000	
29.407091	464.000000	
29.426812	457.000000	
29.446533	448.000000	
29.466255	467.000000	
29.485976	471.000000	
29.505697	504.000000	
29.525419	449.000000	
29.545140	478.000000	
29.564861	447.000000	
29.584583	451.000000	
29.604304	476.000000	
29.624026	498.000000	
29.643747	489.000000	
29.663468	509.000000	
29.683190	459.000000	
29.702911	456.000000	
29.722632	428.000000	
29.742354	470.000000	
29.762075	460.000000	
29.781796	495.000000	
29.801518	457.000000	
29.821239	493.000000	
29.840961	515.000000	
29.860682	482.000000	
29.880403	501.000000	
29.900125	527.000000	
29.919846	452.000000	
29.939567	542.000000	
29.959289	470.000000	
29.979010	512.000000	
29.998731	488.000000	
30.018453	470.000000	
30.038174	477.000000	
30.057896	470.000000	
30.077617	491.000000	
30.097338	469.000000	
30.117060	543.000000	
30.136781	511.000000	
30.156502	481.000000	
30.176224	531.000000	
30.195945	539.000000	
30.215666	529.000000	
30.235388	561.000000	
30.255109	517.000000	
30.274831	540.000000	
30.294552	552.000000	
30.314273	540.000000	
30.333995	502.000000	
30.353716	542.000000	
30.373437	555.000000	
30.393159	518.000000	
30.412880	510.000000	
30.432601	527.000000	
30.452323	501.000000	
30.472044	489.000000	
30.491766	512.000000	
30.511487	484.000000	
30.531208	486.000000	
30.550930	498.000000	
30.570651	521.000000	
30.590372	483.000000	
30.610094	460.000000	
30.629815	529.000000	
30.649536	465.000000	
30.669258	523.000000	
30.688979	453.000000	
30.708701	480.000000	
30.728422	458.000000	
30.748143	508.000000	
30.767865	477.000000	
30.787586	469.000000	
30.807307	468.000000	
30.827029	472.000000	
30.846750	443.000000	
30.866471	433.000000	
30.886193	505.000000	
30.905914	490.000000	
30.925636	488.000000	
30.945357	446.000000	
30.965078	465.000000	
30.984800	500.000000	
31.004521	446.000000	
31.024242	454.000000	
31.043964	458.000000	
31.063685	453.000000	
31.083406	459.000000	
31.103128	465.000000	
31.122849	480.000000	
31.142571	453.000000	
31.162292	480.000000	
31.182013	499.000000	
31.201735	433.000000	
31.221456	446.000000	
31.241177	484.000000	
31.260899	475.000000	
31.280620	431.000000	
31.300341	449.000000	
31.320063	463.000000	
31.339784	473.000000	
31.359506	474.000000	
31.379227	453.000000	
31.398948	432.000000	
31.418670	482.000000	
31.438391	495.000000	
31.458112	463.000000	
31.477834	484.000000	
31.497555	471.000000	
31.517276	461.000000	
31.536998	470.000000	
31.556719	443.000000	
31.576441	469.000000	
31.596162	432.000000	
31.615883	443.000000	
31.635605	448.000000	
31.655326	476.000000	
31.675047	423.000000	
31.694769	477.000000	
31.714490	502.000000	
31.734211	470.000000	
31.753933	486.000000	
31.773654	446.000000	
31.793376	507.000000	
31.813097	463.000000	
31.832818	488.000000	
31.852540	439.000000	
31.872261	463.000000	
31.891982	461.000000	
31.911704	488.000000	
31.931425	436.000000	
31.951146	452.000000	
31.970868	480.000000	
31.990589	516.000000	
32.010311	429.000000	
32.030032	474.000000	
32.049753	503.000000	
32.069475	458.000000	
32.089196	487.000000	
32.108917	470.000000	
32.128639	457.000000	
32.148360	475.000000	
32.168081	473.000000	
32.187803	483.000000	
32.207524	476.000000	
32.227246	486.000000	
32.246967	458.000000	
32.266688	477.000000	
32.286410	453.000000	
32.306131	477.000000	
32.325852	457.000000	
32.345574	492.000000	
32.365295	499.000000	
32.385016	432.000000	
32.404738	493.000000	
32.424459	514.000000	
32.444181	492.000000	
32.463902	460.000000	
32.483623	471.000000	
32.503345	430.000000	
32.523066	496.000000	
32.542787	531.000000	
32.562509	490.000000	
32.582230	497.000000	
32.601951	475.000000	
32.621673	477.000000	
32.641394	463.000000	
32.661116	430.000000	
32.680837	471.000000	
32.700558	470.000000	
32.720280	445.000000	
32.740001	473.000000	
32.759722	479.000000	
32.779444	479.000000	
32.799165	505.000000	
32.818886	445.000000	
32.838608	468.000000	
32.858329	536.000000	
32.878051	508.000000	
32.897772	499.000000	
32.917493	446.000000	
32.937215	483.000000	
32.956936	415.000000	
32.976657	465.000000	
32.996379	469.000000	
33.016100	457.000000	
33.035821	465.000000	
33.055543	482.000000	
33.075264	490.000000	
33.094986	477.000000	
33.114707	472.000000	
33.134428	478.000000	
33.154150	434.000000	
33.173871	505.000000	
33.193592	509.000000	
33.213314	505.000000	
33.233035	494.000000	
33.252757	538.000000	
33.272478	478.000000	
33.292199	525.000000	
33.311921	530.000000	
33.331642	513.000000	
33.351363	532.000000	
33.371085	549.000000	
33.390806	603.000000	
33.410527	567.000000	
33.430249	584.000000	
33.449970	613.000000	
33.469692	616.000000	
33.489413	684.000000	
33.509134	693.000000	
33.528856	716.000000	
33.548577	765.000000	
33.568298	733.000000	
33.588020	731.000000	
33.607741	706.000000	
33.627462	706.000000	
33.647184	696.000000	
33.666905	716.000000	
33.686627	653.000000	
33.706348	621.000000	
33.726069	588.000000	
33.745791	565.000000	
33.765512	523.000000	
33.785233	505.000000	
33.804955	505.000000	
33.824676	529.000000	
33.844397	520.000000	
33.864119	494.000000	
33.883840	488.000000	
33.903562	459.000000	
33.923283	468.000000	
33.943004	465.000000	
33.962726	484.000000	
33.982447	470.000000	
34.002168	396.000000	
34.021890	507.000000	
34.041611	484.000000	
34.061332	500.000000	
34.081054	463.000000	
34.100775	480.000000	
34.120497	508.000000	
34.140218	505.000000	
34.159939	488.000000	
34.179661	462.000000	
34.199382	447.000000	
34.219103	481.000000	
34.238825	460.000000	
34.258546	475.000000	
34.278267	449.000000	
34.297989	478.000000	
34.317710	476.000000	
34.337432	467.000000	
34.357153	451.000000	
34.376874	481.000000	
34.396596	454.000000	
34.416317	473.000000	
34.436038	429.000000	
34.455760	485.000000	
34.475481	453.000000	
34.495202	496.000000	
34.514924	489.000000	
34.534645	449.000000	
34.554367	441.000000	
34.574088	440.000000	
34.593809	459.000000	
34.613531	467.000000	
34.633252	468.000000	
34.652973	465.000000	
34.672695	424.000000	
34.692416	493.000000	
34.712137	453.000000	
34.731859	483.000000	
34.751580	472.000000	
34.771302	506.000000	
34.791023	481.000000	
34.810744	491.000000	
34.830466	484.000000	
34.850187	486.000000	
34.869908	453.000000	
34.889630	469.000000	
34.909351	479.000000	
34.929072	484.000000	
34.948794	489.000000	
34.968515	427.000000	
34.988237	469.000000	
35.007958	490.000000	
35.027679	452.000000	
35.047401	508.000000	
35.067122	463.000000	
35.086843	447.000000	
35.106565	494.000000	
35.126286	484.000000	
35.146007	486.000000	
35.165729	494.000000	
35.185450	489.000000	
35.205172	491.000000	
35.224893	463.000000	
35.244614	549.000000	
35.264336	515.000000	
35.284057	439.000000	
35.303778	498.000000	
35.323500	486.000000	
35.343221	501.000000	
35.362942	456.000000	
35.382664	514.000000	
35.402385	528.000000	
35.422107	487.000000	
35.441828	541.000000	
35.461549	469.000000	
35.481271	540.000000	
35.500992	515.000000	
35.520713	542.000000	
35.540435	516.000000	
35.560156	515.000000	
35.579877	583.000000	
35.599599	563.000000	
35.619320	566.000000	
35.639042	581.000000	
35.658763	601.000000	
35.678484	601.000000	
35.698206	619.000000	
35.717927	635.000000	
35.737648	579.000000	
35.757370	559.000000	
35.777091	560.000000	
35.796812	574.000000	
35.816534	549.000000	
35.836255	580.000000	
35.855977	522.000000	
35.875698	589.000000	
35.895419	527.000000	
35.915141	543.000000	
35.934862	525.000000	
35.954583	521.000000	
35.974305	556.000000	
35.994026	584.000000	
36.013747	532.000000	
36.033469	584.000000	
36.053190	638.000000	
36.072912	620.000000	
36.092633	618.000000	
36.112354	618.000000	
36.132076	710.000000	
36.151797	638.000000	
36.171518	634.000000	
36.191240	643.000000	
36.210961	638.000000	
36.230682	648.000000	
36.250404	609.000000	
36.270125	616.000000	
36.289847	596.000000	
36.309568	546.000000	
36.329289	531.000000	
36.349011	515.000000	
36.368732	500.000000	
36.388453	475.000000	
36.408175	492.000000	
36.427896	457.000000	
36.447617	504.000000	
36.467339	473.000000	
36.487060	468.000000	
36.506782	456.000000	
36.526503	495.000000	
36.546224	486.000000	
36.565946	469.000000	
36.585667	476.000000	
36.605388	479.000000	
36.625110	439.000000	
36.644831	475.000000	
36.664552	495.000000	
36.684274	496.000000	
36.703995	477.000000	
36.723717	444.000000	
36.743438	481.000000	
36.763159	463.000000	
36.782881	427.000000	
36.802602	513.000000	
36.822323	491.000000	
36.842045	443.000000	
36.861766	486.000000	
36.881487	450.000000	
36.901209	441.000000	
36.920930	451.000000	
36.940652	492.000000	
36.960373	513.000000	
36.980094	458.000000	
36.999816	508.000000	
37.019537	459.000000	
37.039258	575.000000	
37.058980	585.000000	
37.078701	567.000000	
37.098422	545.000000	
37.118144	610.000000	
37.137865	599.000000	
37.157587	773.000000	
37.177308	790.000000	
37.197029	884.000000	
37.216751	963.000000	
37.236472	1025.000000	
37.256193	1086.000000	
37.275915	1062.000000	
37.295636	923.000000	
37.315357	886.000000	
37.335079	838.000000	
37.354800	804.000000	
37.374522	768.000000	
37.394243	679.000000	
37.413964	601.000000	
37.433686	588.000000	
37.453407	568.000000	
37.473128	495.000000	
37.492850	461.000000	
37.512571	460.000000	
37.532292	503.000000	
37.552014	508.000000	
37.571735	507.000000	
37.591457	474.000000	
37.611178	462.000000	
37.630899	448.000000	
37.650621	483.000000	
37.670342	531.000000	
37.690063	481.000000	
37.709785	460.000000	
37.729506	482.000000	
37.749227	431.000000	
37.768949	461.000000	
37.788670	479.000000	
37.808392	487.000000	
37.828113	429.000000	
37.847834	430.000000	
37.867556	465.000000	
37.887277	489.000000	
37.906998	497.000000	
37.926720	478.000000	
37.946441	469.000000	
37.966162	459.000000	
37.985884	448.000000	
38.005605	483.000000	
38.025327	456.000000	
38.045048	422.000000	
38.064769	473.000000	
38.084491	495.000000	
38.104212	467.000000	
38.123933	478.000000	
38.143655	432.000000	
38.163376	481.000000	
38.183097	448.000000	
38.202819	463.000000	
38.222540	445.000000	
38.242262	481.000000	
38.261983	472.000000	
38.281704	428.000000	
38.301426	471.000000	
38.321147	433.000000	
38.340868	460.000000	
38.360590	464.000000	
38.380311	451.000000	
38.400032	453.000000	
38.419754	478.000000	
38.439475	438.000000	
38.459197	468.000000	
38.478918	466.000000	
38.498639	419.000000	
38.518361	445.000000	
38.538082	475.000000	
38.557803	476.000000	
38.577525	461.000000	
38.597246	435.000000	
38.616967	456.000000	
38.636689	482.000000	
38.656410	435.000000	
38.676132	471.000000	
38.695853	472.000000	
38.715574	494.000000	
38.735296	442.000000	
38.755017	458.000000	
38.774738	465.000000	
38.794460	475.000000	
38.814181	461.000000	
38.833902	470.000000	
38.853624	454.000000	
38.873345	435.000000	
38.893067	460.000000	
38.912788	450.000000	
38.932509	452.000000	
38.952231	468.000000	
38.971952	472.000000	
38.991673	431.000000	
39.011395	470.000000	
39.031116	413.000000	
39.050837	484.000000	
39.070559	449.000000	
39.090280	477.000000	
39.110002	474.000000	
39.129723	453.000000	
39.149444	492.000000	
39.169166	473.000000	
39.188887	456.000000	
39.208608	478.000000	
39.228330	449.000000	
39.248051	435.000000	
39.267772	480.000000	
39.287494	458.000000	
39.307215	488.000000	
39.326937	448.000000	
39.346658	476.000000	
39.366379	485.000000	
39.386101	478.000000	
39.405822	490.000000	
39.425543	484.000000	
39.445265	460.000000	
39.464986	467.000000	
39.484707	484.000000	
39.504429	464.000000	
39.524150	471.000000	
39.543872	482.000000	
39.563593	484.000000	
39.583314	495.000000	
39.603036	510.000000	
39.622757	470.000000	
39.642478	509.000000	
39.662200	502.000000	
39.681921	511.000000	
39.701642	483.000000	
39.721364	523.000000	
39.741085	514.000000	
39.760807	492.000000	
39.780528	496.000000	
39.800249	485.000000	
39.819971	439.000000	
39.839692	472.000000	
39.859413	472.000000	
39.879135	470.000000	
39.898856	462.000000	
39.918577	453.000000	
39.938299	461.000000	
39.958020	442.000000	
39.977742	470.000000	
39.997463	424.000000	
40.017184	485.000000	
40.036906	470.000000	
40.056627	482.000000	
40.076348	483.000000	
40.096070	485.000000	
40.115791	461.000000	
40.135512	432.000000	
40.155234	455.000000	
40.174955	492.000000	
40.194677	456.000000	
40.214398	431.000000	
40.234119	477.000000	
40.253841	442.000000	
40.273562	476.000000	
40.293283	463.000000	
40.313005	435.000000	
40.332726	449.000000	
40.352447	477.000000	
40.372169	465.000000	
40.391890	478.000000	
40.411612	472.000000	
40.431333	467.000000	
40.451054	477.000000	
40.470776	443.000000	
40.490497	416.000000	
40.510218	454.000000	
40.529940	454.000000	
40.549661	462.000000	
40.569382	457.000000	
40.589104	443.000000	
40.608825	457.000000	
40.628547	455.000000	
40.648268	449.000000	
40.667989	457.000000	
40.687711	417.000000	
40.707432	438.000000	
40.727153	423.000000	
40.746875	469.000000	
40.766596	484.000000	
40.786317	464.000000	
40.806039	438.000000	
40.825760	451.000000	
40.845482	452.000000	
40.865203	455.000000	
40.884924	458.000000	
40.904646	481.000000	
40.924367	460.000000	
40.944088	445.000000	
40.963810	445.000000	
40.983531	476.000000	
41.003252	435.000000	
41.022974	474.000000	
41.042695	478.000000	
41.062417	462.000000	
41.082138	448.000000	
41.101859	461.000000	
41.121581	468.000000	
41.141302	495.000000	
41.161023	476.000000	
41.180745	465.000000	
41.200466	454.000000	
41.220187	441.000000	
41.239909	464.000000	
41.259630	440.000000	
41.279352	484.000000	
41.299073	453.000000	
41.318794	497.000000	
41.338516	463.000000	
41.358237	488.000000	
41.377958	492.000000	
41.397680	476.000000	
41.417401	493.000000	
41.437122	462.000000	
41.456844	498.000000	
41.476565	496.000000	
41.496287	486.000000	
41.516008	473.000000	
41.535729	506.000000	
41.555451	467.000000	
41.575172	484.000000	
41.594893	491.000000	
41.614615	460.000000	
41.634336	481.000000	
41.654057	509.000000	
41.673779	478.000000	
41.693500	478.000000	
41.713222	466.000000	
41.732943	476.000000	
41.752664	452.000000	
41.772386	444.000000	
41.792107	478.000000	
41.811828	462.000000	
41.831550	445.000000	
41.851271	461.000000	
41.870992	432.000000	
41.890714	472.000000	
41.910435	457.000000	
41.930157	480.000000	
41.949878	428.000000	
41.969599	419.000000	
41.989321	468.000000	
42.009042	448.000000	
42.028763	477.000000	
42.048485	442.000000	
42.068206	418.000000	
42.087928	464.000000	
42.107649	463.000000	
42.127370	433.000000	
42.147092	464.000000	
42.166813	476.000000	
42.186534	473.000000	
42.206256	496.000000	
42.225977	453.000000	
42.245698	486.000000	
42.265420	431.000000	
42.285141	464.000000	
42.304863	482.000000	
42.324584	507.000000	
42.344305	494.000000	
42.364027	481.000000	
42.383748	482.000000	
42.403469	484.000000	
42.423191	477.000000	
42.442912	525.000000	
42.462633	486.000000	
42.482355	524.000000	
42.502076	526.000000	
42.521798	447.000000	
42.541519	488.000000	
42.561240	463.000000	
42.580962	526.000000	
42.600683	534.000000	
42.620404	443.000000	
42.640126	485.000000	
42.659847	516.000000	
42.679568	515.000000	
42.699290	472.000000	
42.719011	455.000000	
42.738733	541.000000	
42.758454	479.000000	
42.778175	516.000000	
42.797897	491.000000	
42.817618	522.000000	
42.837339	509.000000	
42.857061	490.000000	
42.876782	502.000000	
42.896503	555.000000	
42.916225	483.000000	
42.935946	517.000000	
42.955668	502.000000	
42.975389	477.000000	
42.995110	513.000000	
43.014832	525.000000	
43.034553	504.000000	
43.054274	561.000000	
43.073996	541.000000	
43.093717	530.000000	
43.113438	549.000000	
43.133160	562.000000	
43.152881	580.000000	
43.172603	530.000000	
43.192324	599.000000	
43.212045	627.000000	
43.231767	702.000000	
43.251488	759.000000	
43.271209	781.000000	
43.290931	901.000000	
43.310652	860.000000	
43.330373	809.000000	
43.350095	795.000000	
43.369816	750.000000	
43.389538	749.000000	
43.409259	796.000000	
43.428980	697.000000	
43.448702	721.000000	
43.468423	606.000000	
43.488144	619.000000	
43.507866	619.000000	
43.527587	594.000000	
43.547308	650.000000	
43.567030	573.000000	
43.586751	700.000000	
43.606473	680.000000	
43.626194	717.000000	
43.645915	745.000000	
43.665637	855.000000	
43.685358	933.000000	
43.705079	1005.000000	
43.724801	1257.000000	
43.744522	1498.000000	
43.764243	1823.000000	
43.783965	2390.000000	
43.803686	3568.000000	
43.823408	5608.000000	
43.843129	8852.000000	
43.862850	13279.000000	
43.882572	20588.000000	
43.902293	25225.000000	
43.922014	20908.000000	
43.941736	15985.000000	
43.961457	14088.000000	
43.981178	14083.000000	
44.000900	15304.000000	
44.020621	15067.000000	
44.040343	11108.000000	
44.060064	7788.000000	
44.079785	5768.000000	
44.099507	4156.000000	
44.119228	2999.000000	
44.138949	2168.000000	
44.158671	1553.000000	
44.178392	1274.000000	
44.198113	1130.000000	
44.217835	899.000000	
44.237556	810.000000	
44.257278	831.000000	
44.276999	686.000000	
44.296720	671.000000	
44.316442	652.000000	
44.336163	588.000000	
44.355884	631.000000	
44.375606	584.000000	
44.395327	550.000000	
44.415048	625.000000	
44.434770	581.000000	
44.454491	546.000000	
44.474213	508.000000	
44.493934	544.000000	
44.513655	552.000000	
44.533377	514.000000	
44.553098	593.000000	
44.572819	555.000000	
44.592541	558.000000	
44.612262	543.000000	
44.631983	546.000000	
44.651705	507.000000	
44.671426	524.000000	
44.691148	511.000000	
44.710869	496.000000	
44.730590	570.000000	
44.750312	527.000000	
44.770033	564.000000	
44.789754	531.000000	
44.809476	514.000000	
44.829197	524.000000	
44.848918	529.000000	
44.868640	457.000000	
44.888361	468.000000	
44.908083	521.000000	
44.927804	535.000000	
44.947525	472.000000	
44.967247	536.000000	
44.986968	494.000000	
45.006689	488.000000	
45.026411	525.000000	
45.046132	522.000000	
45.065853	497.000000	
45.085575	507.000000	
45.105296	455.000000	
45.125018	514.000000	
45.144739	497.000000	
45.164460	532.000000	
45.184182	557.000000	
45.203903	477.000000	
45.223624	501.000000	
45.243346	497.000000	
45.263067	449.000000	
45.282788	488.000000	
45.302510	502.000000	
45.322231	459.000000	
45.341953	500.000000	
45.361674	483.000000	
45.381395	503.000000	
45.401117	446.000000	
45.420838	473.000000	
45.440559	466.000000	
45.460281	504.000000	
45.480002	474.000000	
45.499723	520.000000	
45.519445	513.000000	
45.539166	491.000000	
45.558888	459.000000	
45.578609	439.000000	
45.598330	469.000000	
45.618052	485.000000	
45.637773	465.000000	
45.657494	476.000000	
45.677216	495.000000	
45.696937	493.000000	
45.716658	509.000000	
45.736380	476.000000	
45.756101	516.000000	
45.775823	492.000000	
45.795544	465.000000	
45.815265	471.000000	
45.834987	487.000000	
45.854708	478.000000	
45.874429	468.000000	
45.894151	483.000000	
45.913872	426.000000	
45.933593	484.000000	
45.953315	466.000000	
45.973036	449.000000	
45.992758	455.000000	
46.012479	421.000000	
46.032200	468.000000	
46.051922	475.000000	
46.071643	446.000000	
46.091364	472.000000	
46.111086	492.000000	
46.130807	481.000000	
46.150528	482.000000	
46.170250	489.000000	
46.189971	476.000000	
46.209693	439.000000	
46.229414	474.000000	
46.249135	482.000000	
46.268857	458.000000	
46.288578	460.000000	
46.308299	443.000000	
46.328021	462.000000	
46.347742	498.000000	
46.367463	440.000000	
46.387185	462.000000	
46.406906	461.000000	
46.426628	486.000000	
46.446349	450.000000	
46.466070	456.000000	
46.485792	461.000000	
46.505513	437.000000	
46.525234	442.000000	
46.544956	450.000000	
46.564677	456.000000	
46.584398	403.000000	
46.604120	443.000000	
46.623841	473.000000	
46.643563	447.000000	
46.663284	455.000000	
46.683005	453.000000	
46.702727	476.000000	
46.722448	440.000000	
46.742169	452.000000	
46.761891	448.000000	
46.781612	456.000000	
46.801333	470.000000	
46.821055	446.000000	
46.840776	472.000000	
46.860498	458.000000	
46.880219	486.000000	
46.899940	456.000000	
46.919662	444.000000	
46.939383	427.000000	
46.959104	479.000000	
46.978826	475.000000	
46.998547	462.000000	
47.018268	447.000000	
47.037990	479.000000	
47.057711	444.000000	
47.077433	475.000000	
47.097154	444.000000	
47.116875	447.000000	
47.136597	446.000000	
47.156318	488.000000	
47.176039	432.000000	
47.195761	466.000000	
47.215482	478.000000	
47.235203	447.000000	
47.254925	450.000000	
47.274646	517.000000	
47.294368	443.000000	
47.314089	407.000000	
47.333810	446.000000	
47.353532	441.000000	
47.373253	442.000000	
47.392974	463.000000	
47.412696	458.000000	
47.432417	447.000000	
47.452138	461.000000	
47.471860	462.000000	
47.491581	468.000000	
47.511303	426.000000	
47.531024	467.000000	
47.550745	479.000000	
47.570467	463.000000	
47.590188	456.000000	
47.609909	442.000000	
47.629631	404.000000	
47.649352	433.000000	
47.669073	480.000000	
47.688795	471.000000	
47.708516	443.000000	
47.728238	434.000000	
47.747959	448.000000	
47.767680	448.000000	
47.787402	425.000000	
47.807123	407.000000	
47.826844	447.000000	
47.846566	424.000000	
47.866287	484.000000	
47.886008	430.000000	
47.905730	450.000000	
47.925451	466.000000	
47.945173	468.000000	
47.964894	447.000000	
47.984615	418.000000	
48.004337	403.000000	
48.024058	440.000000	
48.043779	449.000000	
48.063501	442.000000	
48.083222	440.000000	
48.102943	429.000000	
48.122665	445.000000	
48.142386	414.000000	
48.162108	445.000000	
48.181829	479.000000	
48.201550	455.000000	
48.221272	407.000000	
48.240993	469.000000	
48.260714	456.000000	
48.280436	416.000000	
48.300157	449.000000	
48.319878	466.000000	
48.339600	502.000000	
48.359321	455.000000	
48.379043	472.000000	
48.398764	473.000000	
48.418485	471.000000	
48.438207	438.000000	
48.457928	473.000000	
48.477649	453.000000	
48.497371	465.000000	
48.517092	464.000000	
48.536813	451.000000	
48.556535	443.000000	
48.576256	440.000000	
48.595978	468.000000	
48.615699	424.000000	
48.635420	419.000000	
48.655142	443.000000	
48.674863	448.000000	
48.694584	417.000000	
48.714306	435.000000	
48.734027	439.000000	
48.753748	371.000000	
48.773470	469.000000	
48.793191	427.000000	
48.812913	447.000000	
48.832634	430.000000	
48.852355	472.000000	
48.872077	454.000000	
48.891798	426.000000	
48.911519	452.000000	
48.931241	457.000000	
48.950962	477.000000	
48.970683	426.000000	
48.990405	435.000000	
49.010126	427.000000	
49.029848	396.000000	
49.049569	431.000000	
49.069290	470.000000	
49.089012	429.000000	
49.108733	458.000000	
49.128454	427.000000	
49.148176	425.000000	
49.167897	439.000000	
49.187618	459.000000	
49.207340	436.000000	
49.227061	433.000000	
49.246783	465.000000	
49.266504	462.000000	
49.286225	463.000000	
49.305947	466.000000	
49.325668	417.000000	
49.345389	459.000000	
49.365111	421.000000	
49.384832	464.000000	
49.404553	443.000000	
49.424275	443.000000	
49.443996	517.000000	
49.463718	429.000000	
49.483439	465.000000	
49.503160	406.000000	
49.522882	424.000000	
49.542603	449.000000	
49.562324	476.000000	
49.582046	494.000000	
49.601767	458.000000	
49.621488	460.000000	
49.641210	434.000000	
49.660931	457.000000	
49.680653	474.000000	
49.700374	457.000000	
49.720095	441.000000	
49.739817	462.000000	
49.759538	432.000000	
49.779259	442.000000	
49.798981	480.000000	
49.818702	434.000000	
49.838423	460.000000	
49.858145	468.000000	
49.877866	497.000000	
49.897588	455.000000	
49.917309	508.000000	
49.937030	527.000000	
49.956752	525.000000	
49.976473	464.000000	
49.996194	500.000000	
50.015916	490.000000	
50.035637	488.000000	
50.055358	513.000000	
50.075080	538.000000	
50.094801	516.000000	
50.114523	571.000000	
50.134244	526.000000	
50.153965	542.000000	
50.173687	549.000000	
50.193408	533.000000	
50.213129	529.000000	
50.232851	570.000000	
50.252572	558.000000	
50.272293	560.000000	
50.292015	521.000000	
50.311736	563.000000	
50.331458	509.000000	
50.351179	503.000000	
50.370900	511.000000	
50.390622	481.000000	
50.410343	490.000000	
50.430064	489.000000	
50.449786	503.000000	
50.469507	504.000000	
50.489228	463.000000	
50.508950	494.000000	
50.528671	475.000000	
50.548393	454.000000	
50.568114	492.000000	
50.587835	515.000000	
50.607557	471.000000	
50.627278	519.000000	
50.646999	535.000000	
50.666721	471.000000	
50.686442	497.000000	
50.706163	530.000000	
50.725885	537.000000	
50.745606	536.000000	
50.765328	524.000000	
50.785049	526.000000	
50.804770	613.000000	
50.824492	638.000000	
50.844213	639.000000	
50.863934	702.000000	
50.883656	766.000000	
50.903377	742.000000	
50.923099	810.000000	
50.942820	906.000000	
50.962541	1003.000000	
50.982263	1114.000000	
51.001984	1400.000000	
51.021705	1810.000000	
51.041427	2547.000000	
51.061148	4080.000000	
51.080869	7216.000000	
51.100591	11130.000000	
51.120312	12872.000000	
51.140034	11842.000000	
51.159755	9985.000000	
51.179476	8531.000000	
51.199198	7758.000000	
51.218919	8211.000000	
51.238640	9084.000000	
51.258362	9109.000000	
51.278083	7930.000000	
51.297804	6164.000000	
51.317526	4969.000000	
51.337247	3836.000000	
51.356969	3063.000000	
51.376690	2556.000000	
51.396411	2049.000000	
51.416133	1631.000000	
51.435854	1281.000000	
51.455575	1101.000000	
51.475297	914.000000	
51.495018	806.000000	
51.514739	715.000000	
51.534461	703.000000	
51.554182	642.000000	
51.573904	578.000000	
51.593625	605.000000	
51.613346	556.000000	
51.633068	551.000000	
51.652789	553.000000	
51.672510	539.000000	
51.692232	536.000000	
51.711953	502.000000	
51.731674	482.000000	
51.751396	496.000000	
51.771117	491.000000	
51.790839	535.000000	
51.810560	485.000000	
51.830281	494.000000	
51.850003	524.000000	
51.869724	471.000000	
51.889445	459.000000	
51.909167	486.000000	
51.928888	483.000000	
51.948609	453.000000	
51.968331	506.000000	
51.988052	470.000000	
52.007774	475.000000	
52.027495	463.000000	
52.047216	452.000000	
52.066938	491.000000	
52.086659	461.000000	
52.106380	454.000000	
52.126102	486.000000	
52.145823	481.000000	
52.165544	450.000000	
52.185266	460.000000	
52.204987	462.000000	
52.224709	446.000000	
52.244430	470.000000	
52.264151	441.000000	
52.283873	451.000000	
52.303594	436.000000	
52.323315	428.000000	
52.343037	462.000000	
52.362758	454.000000	
52.382479	437.000000	
52.402201	442.000000	
52.421922	418.000000	
52.441644	448.000000	
52.461365	472.000000	
52.481086	457.000000	
52.500808	445.000000	
52.520529	450.000000	
52.540250	436.000000	
52.559972	443.000000	
52.579693	443.000000	
52.599414	441.000000	
52.619136	408.000000	
52.638857	429.000000	
52.658579	462.000000	
52.678300	453.000000	
52.698021	414.000000	
52.717743	454.000000	
52.737464	422.000000	
52.757185	424.000000	
52.776907	468.000000	
52.796628	426.000000	
52.816349	444.000000	
52.836071	421.000000	
52.855792	385.000000	
52.875514	476.000000	
52.895235	490.000000	
52.914956	439.000000	
52.934678	473.000000	
52.954399	462.000000	
52.974120	449.000000	
52.993842	445.000000	
53.013563	487.000000	
53.033284	438.000000	
53.053006	423.000000	
53.072727	417.000000	
53.092449	451.000000	
53.112170	452.000000	
53.131891	451.000000	
53.151613	379.000000	
53.171334	445.000000	
53.191055	439.000000	
53.210777	460.000000	
53.230498	423.000000	
53.250219	477.000000	
53.269941	436.000000	
53.289662	478.000000	
53.309384	416.000000	
53.329105	428.000000	
53.348826	439.000000	
53.368548	437.000000	
53.388269	430.000000	
53.407990	447.000000	
53.427712	451.000000	
53.447433	425.000000	
53.467154	436.000000	
53.486876	422.000000	
53.506597	435.000000	
53.526319	451.000000	
53.546040	429.000000	
53.565761	467.000000	
53.585483	463.000000	
53.605204	453.000000	
53.624925	456.000000	
53.644647	428.000000	
53.664368	389.000000	
53.684089	424.000000	
53.703811	463.000000	
53.723532	422.000000	
53.743254	462.000000	
53.762975	473.000000	
53.782696	380.000000	
53.802418	434.000000	
53.822139	517.000000	
53.841860	452.000000	
53.861582	420.000000	
53.881303	457.000000	
53.901024	446.000000	
53.920746	414.000000	
53.940467	445.000000	
53.960189	447.000000	
53.979910	453.000000	
53.999631	444.000000	
54.019353	425.000000	
54.039074	467.000000	
54.058795	416.000000	
54.078517	407.000000	
54.098238	407.000000	
54.117959	415.000000	
54.137681	429.000000	
54.157402	419.000000	
54.177124	422.000000	
54.196845	440.000000	
54.216566	451.000000	
54.236288	435.000000	
54.256009	442.000000	
54.275730	439.000000	
54.295452	394.000000	
54.315173	438.000000	
54.334894	410.000000	
54.354616	466.000000	
54.374337	438.000000	
54.394059	445.000000	
54.413780	438.000000	
54.433501	438.000000	
54.453223	464.000000	
54.472944	410.000000	
54.492665	441.000000	
54.512387	475.000000	
54.532108	462.000000	
54.551829	427.000000	
54.571551	438.000000	
54.591272	501.000000	
54.610994	478.000000	
54.630715	502.000000	
54.650436	461.000000	
54.670158	482.000000	
54.689879	482.000000	
54.709600	482.000000	
54.729322	445.000000	
54.749043	472.000000	
54.768764	513.000000	
54.788486	519.000000	
54.808207	462.000000	
54.827929	509.000000	
54.847650	484.000000	
54.867371	488.000000	
54.887093	456.000000	
54.906814	466.000000	
54.926535	471.000000	
54.946257	444.000000	
54.965978	473.000000	
54.985699	515.000000	
55.005421	431.000000	
55.025142	453.000000	
55.044864	440.000000	
55.064585	431.000000	
55.084306	451.000000	
55.104028	462.000000	
55.123749	447.000000	
55.143470	425.000000	
55.163192	426.000000	
55.182913	436.000000	
55.202634	438.000000	
55.222356	434.000000	
55.242077	438.000000	
55.261799	452.000000	
55.281520	419.000000	
55.301241	421.000000	
55.320963	405.000000	
55.340684	430.000000	
55.360405	442.000000	
55.380127	412.000000	
55.399848	423.000000	
55.419569	421.000000	
55.439291	404.000000	
55.459012	423.000000	
55.478734	439.000000	
55.498455	459.000000	
55.518176	432.000000	
55.537898	430.000000	
55.557619	414.000000	
55.577340	441.000000	
55.597062	432.000000	
55.616783	399.000000	
55.636504	394.000000	
55.656226	442.000000	
55.675947	426.000000	
55.695669	399.000000	
55.715390	410.000000	
55.735111	451.000000	
55.754833	440.000000	
55.774554	442.000000	
55.794275	419.000000	
55.813997	425.000000	
55.833718	445.000000	
55.853439	397.000000	
55.873161	434.000000	
55.892882	434.000000	
55.912604	430.000000	
55.932325	404.000000	
55.952046	440.000000	
55.971768	442.000000	
55.991489	428.000000	
56.011210	372.000000	
56.030932	400.000000	
56.050653	406.000000	
56.070374	378.000000	
56.090096	418.000000	
56.109817	417.000000	
56.129539	382.000000	
56.149260	417.000000	
56.168981	403.000000	
56.188703	452.000000	
56.208424	412.000000	
56.228145	416.000000	
56.247867	443.000000	
56.267588	392.000000	
56.287309	432.000000	
56.307031	395.000000	
56.326752	382.000000	
56.346474	394.000000	
56.366195	401.000000	
56.385916	374.000000	
56.405638	420.000000	
56.425359	407.000000	
56.445080	411.000000	
56.464802	431.000000	
56.484523	417.000000	
56.504244	435.000000	
56.523966	432.000000	
56.543687	412.000000	
56.563409	417.000000	
56.583130	384.000000	
56.602851	386.000000	
56.622573	438.000000	
56.642294	392.000000	
56.662015	412.000000	
56.681737	454.000000	
56.701458	401.000000	
56.721179	384.000000	
56.740901	409.000000	
56.760622	396.000000	
56.780344	392.000000	
56.800065	468.000000	
56.819786	401.000000	
56.839508	404.000000	
56.859229	421.000000	
56.878950	439.000000	
56.898672	441.000000	
56.918393	460.000000	
56.938114	417.000000	
56.957836	417.000000	
56.977557	408.000000	
56.997279	423.000000	
57.017000	422.000000	
57.036721	389.000000	
57.056443	434.000000	
57.076164	413.000000	
57.095885	391.000000	
57.115607	398.000000	
57.135328	422.000000	
57.155049	447.000000	
57.174771	414.000000	
57.194492	445.000000	
57.214214	421.000000	
57.233935	381.000000	
57.253656	446.000000	
57.273378	445.000000	
57.293099	440.000000	
57.312820	439.000000	
57.332542	444.000000	
57.352263	435.000000	
57.371984	397.000000	
57.391706	427.000000	
57.411427	433.000000	
57.431149	462.000000	
57.450870	421.000000	
57.470591	428.000000	
57.490313	429.000000	
57.510034	450.000000	
57.529755	419.000000	
57.549477	425.000000	
57.569198	423.000000	
57.588919	414.000000	
57.608641	418.000000	
57.628362	404.000000	
57.648084	434.000000	
57.667805	446.000000	
57.687526	425.000000	
57.707248	397.000000	
57.726969	400.000000	
57.746690	413.000000	
57.766412	370.000000	
57.786133	434.000000	
57.805854	415.000000	
57.825576	397.000000	
57.845297	379.000000	
57.865019	422.000000	
57.884740	431.000000	
57.904461	431.000000	
57.924183	409.000000	
57.943904	398.000000	
57.963625	420.000000	
57.983347	403.000000	
58.003068	421.000000	
58.022789	390.000000	
58.042511	415.000000	
58.062232	407.000000	
58.081954	363.000000	
58.101675	432.000000	
58.121396	372.000000	
58.141118	419.000000	
58.160839	426.000000	
58.180560	401.000000	
58.200282	399.000000	
58.220003	409.000000	
58.239724	417.000000	
58.259446	399.000000	
58.279167	411.000000	
58.298889	453.000000	
58.318610	451.000000	
58.338331	406.000000	
58.358053	395.000000	
58.377774	418.000000	
58.397495	395.000000	
58.417217	395.000000	
58.436938	439.000000	
58.456659	411.000000	
58.476381	362.000000	
58.496102	417.000000	
58.515824	418.000000	
58.535545	358.000000	
58.555266	385.000000	
58.574988	374.000000	
58.594709	401.000000	
58.614430	454.000000	
58.634152	406.000000	
58.653873	390.000000	
58.673594	402.000000	
58.693316	413.000000	
58.713037	417.000000	
58.732759	385.000000	
58.752480	397.000000	
58.772201	424.000000	
58.791923	392.000000	
58.811644	411.000000	
58.831365	413.000000	
58.851087	367.000000	
58.870808	438.000000	
58.890529	374.000000	
58.910251	378.000000	
58.929972	395.000000	
58.949694	401.000000	
58.969415	404.000000	
58.989136	425.000000	
59.008858	408.000000	
59.028579	395.000000	
59.048300	417.000000	
59.068022	383.000000	
59.087743	392.000000	
59.107464	371.000000	
59.127186	365.000000	
59.146907	410.000000	
59.166629	424.000000	
59.186350	420.000000	
59.206071	397.000000	
59.225793	427.000000	
59.245514	394.000000	
59.265235	382.000000	
59.284957	369.000000	
59.304678	416.000000	
59.324399	381.000000	
59.344121	373.000000	
59.363842	424.000000	
59.383564	418.000000	
59.403285	391.000000	
59.423006	393.000000	
59.442728	416.000000	
59.462449	406.000000	
59.482170	403.000000	
59.501892	390.000000	
59.521613	434.000000	
59.541334	404.000000	
59.561056	415.000000	
59.580777	427.000000	
59.600499	434.000000	
59.620220	384.000000	
59.639941	392.000000	
59.659663	420.000000	
59.679384	355.000000	
59.699105	417.000000	
59.718827	366.000000	
59.738548	351.000000	
59.758270	383.000000	
59.777991	445.000000	
59.797712	368.000000	
59.817434	399.000000	
59.837155	385.000000	
59.856876	391.000000	
59.876598	391.000000	
59.896319	398.000000	
59.916040	431.000000	
59.935762	425.000000	
59.955483	409.000000	
59.975205	378.000000	
59.994926	431.000000	
60.014647	362.000000	
60.034369	388.000000	
60.054090	393.000000	
60.073811	415.000000	
60.093533	356.000000	
60.113254	381.000000	
60.132975	376.000000	
60.152697	397.000000	
60.172418	395.000000	
60.192140	414.000000	
60.211861	397.000000	
60.231582	361.000000	
60.251304	406.000000	
60.271025	366.000000	
60.290746	365.000000	
60.310468	399.000000	
60.330189	411.000000	
60.349910	401.000000	
60.369632	380.000000	
60.389353	408.000000	
60.409075	363.000000	
60.428796	389.000000	
60.448517	383.000000	
60.468239	371.000000	
60.487960	423.000000	
60.507681	378.000000	
60.527403	420.000000	
60.547124	401.000000	
60.566845	388.000000	
60.586567	403.000000	
60.606288	417.000000	
60.626010	410.000000	
60.645731	404.000000	
60.665452	396.000000	
60.685174	364.000000	
60.704895	387.000000	
60.724616	415.000000	
60.744338	424.000000	
60.764059	384.000000	
60.783780	380.000000	
60.803502	393.000000	
60.823223	382.000000	
60.842945	376.000000	
60.862666	407.000000	
60.882387	381.000000	
60.902109	402.000000	
60.921830	371.000000	
60.941551	384.000000	
60.961273	339.000000	
60.980994	445.000000	
61.000715	383.000000	
61.020437	395.000000	
61.040158	405.000000	
61.059880	385.000000	
61.079601	393.000000	
61.099322	428.000000	
61.119044	365.000000	
61.138765	393.000000	
61.158486	404.000000	
61.178208	380.000000	
61.197929	394.000000	
61.217650	421.000000	
61.237372	391.000000	
61.257093	371.000000	
61.276815	391.000000	
61.296536	402.000000	
61.316257	425.000000	
61.335979	395.000000	
61.355700	375.000000	
61.375421	383.000000	
61.395143	409.000000	
61.414864	398.000000	
61.434585	384.000000	
61.454307	397.000000	
61.474028	399.000000	
61.493750	363.000000	
61.513471	414.000000	
61.533192	357.000000	
61.552914	364.000000	
61.572635	356.000000	
61.592356	355.000000	
61.612078	399.000000	
61.631799	376.000000	
61.651520	367.000000	
61.671242	435.000000	
61.690963	399.000000	
61.710685	377.000000	
61.730406	348.000000	
61.750127	405.000000	
61.769849	393.000000	
61.789570	396.000000	
61.809291	398.000000	
61.829013	355.000000	
61.848734	383.000000	
61.868455	386.000000	
61.888177	387.000000	
61.907898	377.000000	
61.927620	387.000000	
61.947341	401.000000	
61.967062	405.000000	
61.986784	445.000000	
62.006505	422.000000	
62.026226	412.000000	
62.045948	344.000000	
62.065669	414.000000	
62.085390	359.000000	
62.105112	410.000000	
62.124833	384.000000	
62.144555	412.000000	
62.164276	395.000000	
62.183997	378.000000	
62.203719	403.000000	
62.223440	378.000000	
62.243161	402.000000	
62.262883	392.000000	
62.282604	399.000000	
62.302325	341.000000	
62.322047	386.000000	
62.341768	383.000000	
62.361490	398.000000	
62.381211	401.000000	
62.400932	388.000000	
62.420654	367.000000	
62.440375	428.000000	
62.460096	433.000000	
62.479818	400.000000	
62.499539	423.000000	
62.519260	406.000000	
62.538982	366.000000	
62.558703	398.000000	
62.578425	416.000000	
62.598146	388.000000	
62.617867	432.000000	
62.637589	434.000000	
62.657310	434.000000	
62.677031	430.000000	
62.696753	448.000000	
62.716474	433.000000	
62.736195	461.000000	
62.755917	501.000000	
62.775638	527.000000	
62.795360	513.000000	
62.815081	503.000000	
62.834802	557.000000	
62.854524	560.000000	
62.874245	493.000000	
62.893966	557.000000	
62.913688	561.000000	
62.933409	517.000000	
62.953130	480.000000	
62.972852	468.000000	
62.992573	503.000000	
63.012295	478.000000	
63.032016	524.000000	
63.051737	474.000000	
63.071459	465.000000	
63.091180	443.000000	
63.110901	455.000000	
63.130623	431.000000	
63.150344	442.000000	
63.170065	464.000000	
63.189787	417.000000	
63.209508	434.000000	
63.229230	395.000000	
63.248951	396.000000	
63.268672	414.000000	
63.288394	413.000000	
63.308115	375.000000	
63.327836	398.000000	
63.347558	434.000000	
63.367279	402.000000	
63.387000	415.000000	
63.406722	420.000000	
63.426443	400.000000	
63.446165	416.000000	
63.465886	416.000000	
63.485607	411.000000	
63.505329	433.000000	
63.525050	404.000000	
63.544771	373.000000	
63.564493	431.000000	
63.584214	432.000000	
63.603935	404.000000	
63.623657	403.000000	
63.643378	389.000000	
63.663100	401.000000	
63.682821	392.000000	
63.702542	400.000000	
63.722264	389.000000	
63.741985	422.000000	
63.761706	399.000000	
63.781428	365.000000	
63.801149	402.000000	
63.820870	384.000000	
63.840592	375.000000	
63.860313	407.000000	
63.880035	376.000000	
63.899756	417.000000	
63.919477	375.000000	
63.939199	438.000000	
63.958920	393.000000	
63.978641	394.000000	
63.998363	370.000000	
64.018084	393.000000	
64.037805	402.000000	
64.057527	405.000000	
64.077248	394.000000	
64.096970	386.000000	
64.116691	346.000000	
64.136412	377.000000	
64.156134	374.000000	
64.175855	394.000000	
64.195576	382.000000	
64.215298	430.000000	
64.235019	369.000000	
64.254740	364.000000	
64.274462	380.000000	
64.294183	415.000000	
64.313905	351.000000	
64.333626	431.000000	
64.353347	404.000000	
64.373069	381.000000	
64.392790	363.000000	
64.412511	378.000000	
64.432233	381.000000	
64.451954	373.000000	
64.471675	382.000000	
64.491397	387.000000	
64.511118	418.000000	
64.530840	414.000000	
64.550561	401.000000	
64.570282	404.000000	
64.590004	387.000000	
64.609725	361.000000	
64.629446	404.000000	
64.649168	373.000000	
64.668889	395.000000	
64.688610	393.000000	
64.708332	383.000000	
64.728053	370.000000	
64.747775	398.000000	
64.767496	361.000000	
64.787217	424.000000	
64.806939	362.000000	
64.826660	402.000000	
64.846381	404.000000	
64.866103	399.000000	
64.885824	410.000000	
64.905545	367.000000	
64.925267	406.000000	
64.944988	415.000000	
64.964710	409.000000	
64.984431	396.000000	
65.004152	409.000000	
65.023874	364.000000	
65.043595	430.000000	
65.063316	375.000000	
65.083038	351.000000	
65.102759	354.000000	
65.122480	378.000000	
65.142202	396.000000	
65.161923	399.000000	
65.181645	400.000000	
65.201366	386.000000	
65.221087	407.000000	
65.240809	386.000000	
65.260530	398.000000	
65.280251	359.000000	
65.299973	391.000000	
65.319694	358.000000	
65.339415	406.000000	
65.359137	386.000000	
65.378858	385.000000	
65.398580	350.000000	
65.418301	388.000000	
65.438022	380.000000	
65.457744	364.000000	
65.477465	397.000000	
65.497186	387.000000	
65.516908	391.000000	
65.536629	396.000000	
65.556350	377.000000	
65.576072	350.000000	
65.595793	430.000000	
65.615515	384.000000	
65.635236	389.000000	
65.654957	365.000000	
65.674679	355.000000	
65.694400	404.000000	
65.714121	391.000000	
65.733843	397.000000	
65.753564	374.000000	
65.773285	398.000000	
65.793007	388.000000	
65.812728	401.000000	
65.832450	419.000000	
65.852171	402.000000	
65.871892	408.000000	
65.891614	390.000000	
65.911335	382.000000	
65.931056	326.000000	
65.950778	385.000000	
65.970499	395.000000	
65.990220	375.000000	
66.009942	361.000000	
66.029663	378.000000	
66.049385	378.000000	
66.069106	392.000000	
66.088827	406.000000	
66.108549	340.000000	
66.128270	391.000000	
66.147991	402.000000	
66.167713	386.000000	
66.187434	383.000000	
66.207155	356.000000	
66.226877	390.000000	
66.246598	377.000000	
66.266320	388.000000	
66.286041	381.000000	
66.305762	360.000000	
66.325484	388.000000	
66.345205	387.000000	
66.364926	386.000000	
66.384648	378.000000	
66.404369	385.000000	
66.424090	389.000000	
66.443812	377.000000	
66.463533	341.000000	
66.483255	404.000000	
66.502976	392.000000	
66.522697	368.000000	
66.542419	387.000000	
66.562140	402.000000	
66.581861	396.000000	
66.601583	358.000000	
66.621304	357.000000	
66.641025	356.000000	
66.660747	354.000000	
66.680468	341.000000	
66.700190	385.000000	
66.719911	377.000000	
66.739632	385.000000	
66.759354	360.000000	
66.779075	358.000000	
66.798796	393.000000	
66.818518	337.000000	
66.838239	358.000000	
66.857960	360.000000	
66.877682	368.000000	
66.897403	374.000000	
66.917125	366.000000	
66.936846	373.000000	
66.956567	398.000000	
66.976289	394.000000	
66.996010	359.000000	
67.015731	357.000000	
67.035453	357.000000	
67.055174	375.000000	
67.074895	377.000000	
67.094617	378.000000	
67.114338	397.000000	
67.134060	377.000000	
67.153781	395.000000	
67.173502	386.000000	
67.193224	393.000000	
67.212945	360.000000	
67.232666	371.000000	
67.252388	409.000000	
67.272109	352.000000	
67.291830	340.000000	
67.311552	396.000000	
67.331273	379.000000	
67.350995	349.000000	
67.370716	370.000000	
67.390437	385.000000	
67.410159	366.000000	
67.429880	366.000000	
67.449601	366.000000	
67.469323	337.000000	
67.489044	365.000000	
67.508765	336.000000	
67.528487	381.000000	
67.548208	385.000000	
67.567930	367.000000	
67.587651	358.000000	
67.607372	391.000000	
67.627094	367.000000	
67.646815	355.000000	
67.666536	328.000000	
67.686258	368.000000	
67.705979	359.000000	
67.725700	360.000000	
67.745422	346.000000	
67.765143	360.000000	
67.784865	370.000000	
67.804586	392.000000	
67.824307	391.000000	
67.844029	363.000000	
67.863750	365.000000	
67.883471	398.000000	
67.903193	353.000000	
67.922914	385.000000	
67.942635	377.000000	
67.962357	375.000000	
67.982078	378.000000	
68.001800	411.000000	
68.021521	339.000000	
68.041242	365.000000	
68.060964	410.000000	
68.080685	392.000000	
68.100406	375.000000	
68.120128	375.000000	
68.139849	353.000000	
68.159570	336.000000	
68.179292	359.000000	
68.199013	350.000000	
68.218735	389.000000	
68.238456	381.000000	
68.258177	403.000000	
68.277899	373.000000	
68.297620	369.000000	
68.317341	364.000000	
68.337063	380.000000	
68.356784	399.000000	
68.376505	389.000000	
68.396227	351.000000	
68.415948	420.000000	
68.435670	370.000000	
68.455391	352.000000	
68.475112	433.000000	
68.494834	386.000000	
68.514555	379.000000	
68.534276	351.000000	
68.553998	327.000000	
68.573719	390.000000	
68.593441	373.000000	
68.613162	387.000000	
68.632883	361.000000	
68.652605	366.000000	
68.672326	383.000000	
68.692047	411.000000	
68.711769	387.000000	
68.731490	359.000000	
68.751211	397.000000	
68.770933	377.000000	
68.790654	390.000000	
68.810376	421.000000	
68.830097	402.000000	
68.849818	347.000000	
68.869540	392.000000	
68.889261	352.000000	
68.908982	373.000000	
68.928704	359.000000	
68.948425	360.000000	
68.968146	345.000000	
68.987868	356.000000	
69.007589	388.000000	
69.027311	354.000000	
69.047032	374.000000	
69.066753	384.000000	
69.086475	374.000000	
69.106196	380.000000	
69.125917	368.000000	
69.145639	352.000000	
69.165360	394.000000	
69.185081	390.000000	
69.204803	363.000000	
69.224524	392.000000	
69.244246	385.000000	
69.263967	380.000000	
69.283688	356.000000	
69.303410	376.000000	
69.323131	363.000000	
69.342852	354.000000	
69.362574	357.000000	
69.382295	355.000000	
69.402016	413.000000	
69.421738	360.000000	
69.441459	359.000000	
69.461181	351.000000	
69.480902	349.000000	
69.500623	383.000000	
69.520345	358.000000	
69.540066	361.000000	
69.559787	357.000000	
69.579509	326.000000	
69.599230	365.000000	
69.618951	352.000000	
69.638673	389.000000	
69.658394	383.000000	
69.678116	390.000000	
69.697837	342.000000	
69.717558	396.000000	
69.737280	332.000000	
69.757001	347.000000	
69.776722	364.000000	
69.796444	338.000000	
69.816165	408.000000	
69.835886	393.000000	
69.855608	391.000000	
69.875329	377.000000	
69.895051	353.000000	
69.914772	355.000000	
69.934493	345.000000	
69.954215	389.000000	
69.973936	396.000000	
69.993657	436.000000	
70.013379	376.000000	
70.033100	353.000000	
70.052821	390.000000	
70.072543	344.000000	
70.092264	374.000000	
70.111986	397.000000	
70.131707	383.000000	
70.151428	355.000000	
70.171150	358.000000	
70.190871	366.000000	
70.210592	340.000000	
70.230314	363.000000	
70.250035	386.000000	
70.269756	398.000000	
70.289478	381.000000	
70.309199	360.000000	
70.328921	363.000000	
70.348642	346.000000	
70.368363	387.000000	
70.388085	376.000000	
70.407806	378.000000	
70.427527	418.000000	
70.447249	363.000000	
70.466970	347.000000	
70.486691	340.000000	
70.506413	372.000000	
70.526134	368.000000	
70.545856	372.000000	
70.565577	343.000000	
70.585298	341.000000	
70.605020	352.000000	
70.624741	385.000000	
70.644462	351.000000	
70.664184	380.000000	
70.683905	353.000000	
70.703626	363.000000	
70.723348	385.000000	
70.743069	390.000000	
70.762791	390.000000	
70.782512	361.000000	
70.802233	359.000000	
70.821955	342.000000	
70.841676	419.000000	
70.861397	361.000000	
70.881119	337.000000	
70.900840	352.000000	
70.920561	317.000000	
70.940283	397.000000	
70.960004	353.000000	
70.979726	367.000000	
70.999447	373.000000	
71.019168	343.000000	
71.038890	394.000000	
71.058611	375.000000	
71.078332	376.000000	
71.098054	385.000000	
71.117775	369.000000	
71.137496	365.000000	
71.157218	342.000000	
71.176939	356.000000	
71.196661	381.000000	
71.216382	375.000000	
71.236103	346.000000	
71.255825	383.000000	
71.275546	343.000000	
71.295267	317.000000	
71.314989	325.000000	
71.334710	368.000000	
71.354431	343.000000	
71.374153	345.000000	
71.393874	319.000000	
71.413596	356.000000	
71.433317	371.000000	
71.453038	332.000000	
71.472760	376.000000	
71.492481	351.000000	
71.512202	365.000000	
71.531924	383.000000	
71.551645	349.000000	
71.571366	372.000000	
71.591088	344.000000	
71.610809	340.000000	
71.630531	358.000000	
71.650252	357.000000	
71.669973	367.000000	
71.689695	355.000000	
71.709416	376.000000	
71.729137	359.000000	
71.748859	367.000000	
71.768580	363.000000	
71.788301	359.000000	
71.808023	363.000000	
71.827744	388.000000	
71.847466	377.000000	
71.867187	388.000000	
71.886908	384.000000	
71.906630	381.000000	
71.926351	353.000000	
71.946072	348.000000	
71.965794	382.000000	
71.985515	333.000000	
72.005236	347.000000	
72.024958	346.000000	
72.044679	339.000000	
72.064401	347.000000	
72.084122	363.000000	
72.103843	358.000000	
72.123565	329.000000	
72.143286	391.000000	
72.163007	337.000000	
72.182729	371.000000	
72.202450	331.000000	
72.222171	336.000000	
72.241893	379.000000	
72.261614	364.000000	
72.281336	371.000000	
72.301057	375.000000	
72.320778	369.000000	
72.340500	385.000000	
72.360221	380.000000	
72.379942	345.000000	
72.399664	359.000000	
72.419385	348.000000	
72.439106	381.000000	
72.458828	362.000000	
72.478549	366.000000	
72.498271	328.000000	
72.517992	313.000000	
72.537713	361.000000	
72.557435	323.000000	
72.577156	337.000000	
72.596877	359.000000	
72.616599	340.000000	
72.636320	396.000000	
72.656041	374.000000	
72.675763	359.000000	
72.695484	378.000000	
72.715206	345.000000	
72.734927	362.000000	
72.754648	362.000000	
72.774370	386.000000	
72.794091	384.000000	
72.813812	385.000000	
72.833534	335.000000	
72.853255	365.000000	
72.872976	379.000000	
72.892698	360.000000	
72.912419	349.000000	
72.932141	351.000000	
72.951862	364.000000	
72.971583	372.000000	
72.991305	346.000000	
73.011026	346.000000	
73.030747	364.000000	
73.050469	353.000000	
73.070190	394.000000	
73.089911	337.000000	
73.109633	354.000000	
73.129354	385.000000	
73.149076	341.000000	
73.168797	402.000000	
73.188518	385.000000	
73.208240	390.000000	
73.227961	341.000000	
73.247682	349.000000	
73.267404	341.000000	
73.287125	359.000000	
73.306846	363.000000	
73.326568	374.000000	
73.346289	356.000000	
73.366011	354.000000	
73.385732	373.000000	
73.405453	351.000000	
73.425175	376.000000	
73.444896	385.000000	
73.464617	368.000000	
73.484339	396.000000	
73.504060	353.000000	
73.523781	348.000000	
73.543503	337.000000	
73.563224	346.000000	
73.582946	378.000000	
73.602667	345.000000	
73.622388	349.000000	
73.642110	356.000000	
73.661831	351.000000	
73.681552	355.000000	
73.701274	383.000000	
73.720995	356.000000	
73.740716	365.000000	
73.760438	338.000000	
73.780159	322.000000	
73.799881	365.000000	
73.819602	372.000000	
73.839323	352.000000	
73.859045	350.000000	
73.878766	348.000000	
73.898487	351.000000	
73.918209	349.000000	
73.937930	385.000000	
73.957651	404.000000	
73.977373	342.000000	
73.997094	340.000000	
74.016816	359.000000	
74.036537	348.000000	
74.056258	366.000000	
74.075980	339.000000	
74.095701	327.000000	
74.115422	369.000000	
74.135144	350.000000	
74.154865	366.000000	
74.174586	368.000000	
74.194308	356.000000	
74.214029	376.000000	
74.233751	368.000000	
74.253472	343.000000	
74.273193	379.000000	
74.292915	375.000000	
74.312636	372.000000	
74.332357	344.000000	
74.352079	375.000000	
74.371800	384.000000	
74.391521	363.000000	
74.411243	398.000000	
74.430964	403.000000	
74.450686	338.000000	
74.470407	348.000000	
74.490128	349.000000	
74.509850	367.000000	
74.529571	379.000000	
74.549292	358.000000	
74.569014	371.000000	
74.588735	400.000000	
74.608456	382.000000	
74.628178	334.000000	
74.647899	351.000000	
74.667621	339.000000	
74.687342	367.000000	
74.707063	369.000000	
74.726785	359.000000	
74.746506	353.000000	
74.766227	359.000000	
74.785949	361.000000	
74.805670	381.000000	
74.825391	360.000000	
74.845113	373.000000	
74.864834	373.000000	
74.884556	369.000000	
74.904277	364.000000	
74.923998	335.000000	
74.943720	381.000000	
74.963441	364.000000	
74.983162	354.000000	
75.002884	398.000000	
75.022605	407.000000	
75.042326	428.000000	
75.062048	395.000000	
75.081769	428.000000	
75.101491	512.000000	
75.121212	554.000000	
75.140933	580.000000	
75.160655	605.000000	
75.180376	652.000000	
75.200097	654.000000	
75.219819	625.000000	
75.239540	516.000000	
75.259261	530.000000	
75.278983	564.000000	
75.298704	485.000000	
75.318426	537.000000	
75.338147	536.000000	
75.357868	547.000000	
75.377590	587.000000	
75.397311	513.000000	
75.417032	578.000000	
75.436754	507.000000	
75.456475	488.000000	
75.476196	454.000000	
75.495918	436.000000	
75.515639	432.000000	
75.535361	409.000000	
75.555082	416.000000	
75.574803	438.000000	
75.594525	419.000000	
75.614246	432.000000	
75.633967	376.000000	
75.653689	368.000000	
75.673410	379.000000	
75.693131	386.000000	
75.712853	352.000000	
75.732574	347.000000	
75.752296	373.000000	
75.772017	341.000000	
75.791738	341.000000	
75.811460	332.000000	
75.831181	393.000000	
75.850902	333.000000	
75.870624	339.000000	
75.890345	365.000000	
75.910066	345.000000	
75.929788	335.000000	
75.949509	330.000000	
75.969231	337.000000	
75.988952	301.000000	
76.008673	372.000000	
76.028395	345.000000	
76.048116	357.000000	
76.067837	398.000000	
76.087559	311.000000	
76.107280	352.000000	
76.127001	394.000000	
76.146723	341.000000	
76.166444	368.000000	
76.186166	365.000000	
76.205887	366.000000	
76.225608	349.000000	
76.245330	347.000000	
76.265051	347.000000	
76.284772	343.000000	
76.304494	320.000000	
76.324215	336.000000	
76.343936	349.000000	
76.363658	335.000000	
76.383379	383.000000	
76.403101	343.000000	
76.422822	388.000000	
76.442543	352.000000	
76.462265	345.000000	
76.481986	358.000000	
76.501707	376.000000	
76.521429	326.000000	
76.541150	356.000000	
76.560871	346.000000	
76.580593	358.000000	
76.600314	320.000000	
76.620036	317.000000	
76.639757	343.000000	
76.659478	360.000000	
76.679200	313.000000	
76.698921	335.000000	
76.718642	332.000000	
76.738364	376.000000	
76.758085	331.000000	
76.777806	322.000000	
76.797528	362.000000	
76.817249	342.000000	
76.836971	329.000000	
76.856692	349.000000	
76.876413	356.000000	
76.896135	375.000000	
76.915856	336.000000	
76.935577	339.000000	
76.955299	372.000000	
76.975020	354.000000	
76.994741	343.000000	
77.014463	344.000000	
77.034184	355.000000	
77.053906	325.000000	
77.073627	327.000000	
77.093348	344.000000	
77.113070	354.000000	
77.132791	340.000000	
77.152512	360.000000	
77.172234	328.000000	
77.191955	340.000000	
77.211676	351.000000	
77.231398	355.000000	
77.251119	325.000000	
77.270841	354.000000	
77.290562	347.000000	
77.310283	356.000000	
77.330005	367.000000	
77.349726	381.000000	
77.369447	344.000000	
77.389169	321.000000	
77.408890	316.000000	
77.428612	368.000000	
77.448333	354.000000	
77.468054	339.000000	
77.487776	338.000000	
77.507497	382.000000	
77.527218	371.000000	
77.546940	317.000000	
77.566661	341.000000	
77.586382	331.000000	
77.606104	343.000000	
77.625825	300.000000	
77.645547	390.000000	
77.665268	373.000000	
77.684989	313.000000	
77.704711	317.000000	
77.724432	320.000000	
77.744153	365.000000	
77.763875	357.000000	
77.783596	328.000000	
77.803317	334.000000	
77.823039	373.000000	
77.842760	356.000000	
77.862482	345.000000	
77.882203	352.000000	
77.901924	362.000000	
77.921646	372.000000	
77.941367	348.000000	
77.961088	351.000000	
77.980810	329.000000	
78.000531	358.000000	
78.020252	321.000000	
78.039974	401.000000	
78.059695	354.000000	
78.079417	368.000000	
78.099138	360.000000	
78.118859	338.000000	
78.138581	331.000000	
78.158302	346.000000	
78.178023	360.000000	
78.197745	332.000000	
78.217466	351.000000	
78.237187	326.000000	
78.256909	357.000000	
78.276630	345.000000	
78.296352	370.000000	
78.316073	354.000000	
78.335794	360.000000	
78.355516	334.000000	
78.375237	319.000000	
78.394958	347.000000	
78.414680	330.000000	
78.434401	332.000000	
78.454122	357.000000	
78.473844	330.000000	
78.493565	342.000000	
78.513287	335.000000	
78.533008	346.000000	
78.552729	330.000000	
78.572451	328.000000	
78.592172	362.000000	
78.611893	325.000000	
78.631615	334.000000	
78.651336	309.000000	
78.671057	344.000000	
78.690779	365.000000	
78.710500	324.000000	
78.730222	325.000000	
78.749943	355.000000	
78.769664	328.000000	
78.789386	355.000000	
78.809107	323.000000	
78.828828	380.000000	
78.848550	356.000000	
78.868271	366.000000	
78.887992	330.000000	
78.907714	333.000000	
78.927435	345.000000	
78.947157	336.000000	
78.966878	348.000000	
78.986599	351.000000	
79.006321	366.000000	
79.026042	369.000000	
79.045763	337.000000	
79.065485	352.000000	
79.085206	340.000000	
79.104927	354.000000	
79.124649	336.000000	
79.144370	333.000000	
79.164092	353.000000	
79.183813	325.000000	
79.203534	310.000000	
79.223256	348.000000	
79.242977	346.000000	
79.262698	325.000000	
79.282420	336.000000	
79.302141	410.000000	
79.321862	355.000000	
79.341584	352.000000	
79.361305	390.000000	
79.381027	354.000000	
79.400748	317.000000	
79.420469	389.000000	
79.440191	359.000000	
79.459912	351.000000	
79.479633	353.000000	
79.499355	323.000000	
79.519076	310.000000	
79.538797	331.000000	
79.558519	347.000000	
79.578240	328.000000	
79.597962	328.000000	
79.617683	315.000000	
79.637404	341.000000	
79.657126	370.000000	
79.676847	350.000000	
79.696568	375.000000	
79.716290	382.000000	
79.736011	328.000000	
79.755732	335.000000	
79.775454	339.000000	
79.795175	326.000000	
79.814897	308.000000	
79.834618	322.000000	
79.854339	345.000000	
79.874061	359.000000	
79.893782	332.000000	
79.913503	317.000000	
79.933225	336.000000	
79.952946	333.000000	
79.972667	364.000000	
79.992389	316.000000	
80.012110	360.000000	
80.031832	337.000000	
80.051553	321.000000	
80.071274	353.000000	
80.090996	341.000000	
80.110717	305.000000	
80.130438	347.000000	
80.150160	315.000000	
80.169881	326.000000	
80.189602	326.000000	
80.209324	347.000000	
80.229045	345.000000	
80.248767	331.000000	
80.268488	330.000000	
80.288209	319.000000	
80.307931	350.000000	
80.327652	351.000000	
80.347373	341.000000	
80.367095	337.000000	
80.386816	329.000000	
80.406537	329.000000	
80.426259	365.000000	
80.445980	365.000000	
80.465702	321.000000	
80.485423	331.000000	
80.505144	303.000000	
80.524866	336.000000	
80.544587	327.000000	
80.564308	338.000000	
80.584030	348.000000	
80.603751	318.000000	
80.623472	322.000000	
80.643194	351.000000	
80.662915	329.000000	
80.682637	346.000000	
80.702358	330.000000	
80.722079	331.000000	
80.741801	295.000000	
80.761522	315.000000	
80.781243	328.000000	
80.800965	316.000000	
80.820686	342.000000	
80.840407	361.000000	
80.860129	340.000000	
80.879850	372.000000	
80.899572	386.000000	
80.919293	306.000000	
80.939014	349.000000	
80.958736	306.000000	
80.978457	341.000000	
80.998178	289.000000	
81.017900	353.000000	
81.037621	287.000000	
81.057342	330.000000	
81.077064	305.000000	
81.096785	316.000000	
81.116507	326.000000	
81.136228	321.000000	
81.155949	326.000000	
81.175671	334.000000	
81.195392	336.000000	
81.215113	332.000000	
81.234835	309.000000	
81.254556	326.000000	
81.274277	338.000000	
81.293999	324.000000	
81.313720	317.000000	
81.333442	295.000000	
81.353163	340.000000	
81.372884	326.000000	
81.392606	322.000000	
81.412327	323.000000	
81.432048	301.000000	
81.451770	328.000000	
81.471491	326.000000	
81.491212	353.000000	
81.510934	332.000000	
81.530655	323.000000	
81.550377	352.000000	
81.570098	336.000000	
81.589819	320.000000	
81.609541	316.000000	
81.629262	295.000000	
81.648983	342.000000	
81.668705	357.000000	
81.688426	347.000000	
81.708147	325.000000	
81.727869	322.000000	
81.747590	349.000000	
81.767312	335.000000	
81.787033	339.000000	
81.806754	335.000000	
81.826476	297.000000	
81.846197	331.000000	
81.865918	345.000000	
81.885640	305.000000	
81.905361	321.000000	
81.925082	327.000000	
81.944804	351.000000	
81.964525	308.000000	
81.984247	320.000000	
82.003968	321.000000	
82.023689	347.000000	
82.043411	324.000000	
82.063132	338.000000	
82.082853	337.000000	
82.102575	332.000000	
82.122296	309.000000	
82.142017	325.000000	
82.161739	325.000000	
82.181460	320.000000	
82.201182	347.000000	
82.220903	345.000000	
82.240624	336.000000	
82.260346	329.000000	
82.280067	332.000000	
82.299788	309.000000	
82.319510	292.000000	
82.339231	334.000000	
82.358952	317.000000	
82.378674	327.000000	
82.398395	315.000000	
82.418117	298.000000	
82.437838	303.000000	
82.457559	353.000000	
82.477281	304.000000	
82.497002	321.000000	
82.516723	340.000000	
82.536445	313.000000	
82.556166	305.000000	
82.575887	345.000000	
82.595609	321.000000	
82.615330	335.000000	
82.635052	339.000000	
82.654773	343.000000	
82.674494	334.000000	
82.694216	350.000000	
82.713937	296.000000	
82.733658	319.000000	
82.753380	333.000000	
82.773101	348.000000	
82.792822	343.000000	
82.812544	322.000000	
82.832265	361.000000	
82.851987	322.000000	
82.871708	305.000000	
82.891429	322.000000	
82.911151	337.000000	
82.930872	323.000000	
82.950593	325.000000	
82.970315	288.000000	
82.990036	318.000000	
83.009757	323.000000	
83.029479	326.000000	
83.049200	293.000000	
83.068922	354.000000	
83.088643	345.000000	
83.108364	344.000000	
83.128086	341.000000	
83.147807	362.000000	
83.167528	331.000000	
83.187250	352.000000	
83.206971	318.000000	
83.226692	322.000000	
83.246414	336.000000	
83.266135	344.000000	
83.285857	319.000000	
83.305578	281.000000	
83.325299	322.000000	
83.345021	304.000000	
83.364742	308.000000	
83.384463	325.000000	
83.404185	389.000000	
83.423906	285.000000	
83.443627	322.000000	
83.463349	325.000000	
83.483070	373.000000	
83.502792	330.000000	
83.522513	325.000000	
83.542234	292.000000	
83.561956	347.000000	
83.581677	310.000000	
83.601398	339.000000	
83.621120	347.000000	
83.640841	331.000000	
83.660562	319.000000	
83.680284	316.000000	
83.700005	314.000000	
83.719727	283.000000	
83.739448	300.000000	
83.759169	330.000000	
83.778891	323.000000	
83.798612	368.000000	
83.818333	327.000000	
83.838055	342.000000	
83.857776	338.000000	
83.877497	348.000000	
83.897219	297.000000	
83.916940	342.000000	
83.936662	329.000000	
83.956383	332.000000	
83.976104	317.000000	
83.995826	324.000000	
84.015547	320.000000	
84.035268	311.000000	
84.054990	305.000000	
84.074711	338.000000	
84.094432	311.000000	
84.114154	328.000000	
84.133875	338.000000	
84.153597	334.000000	
84.173318	306.000000	
84.193039	328.000000	
84.212761	276.000000	
84.232482	306.000000	
84.252203	267.000000	
84.271925	335.000000	
84.291646	315.000000	
84.311367	337.000000	
84.331089	320.000000	
84.350810	317.000000	
84.370532	345.000000	
84.390253	355.000000	
84.409974	311.000000	
84.429696	302.000000	
84.449417	347.000000	
84.469138	295.000000	
84.488860	331.000000	
84.508581	307.000000	
84.528302	353.000000	
84.548024	345.000000	
84.567745	310.000000	
84.587467	353.000000	
84.607188	354.000000	
84.626909	336.000000	
84.646631	323.000000	
84.666352	293.000000	
84.686073	299.000000	
84.705795	304.000000	
84.725516	302.000000	
84.745237	317.000000	
84.764959	320.000000	
84.784680	336.000000	
84.804402	351.000000	
84.824123	303.000000	
84.843844	342.000000	
84.863566	319.000000	
84.883287	305.000000	
84.903008	336.000000	
84.922730	296.000000	
84.942451	289.000000	
84.962172	277.000000	
84.981894	306.000000	
85.001615	320.000000	
85.021337	344.000000	
85.041058	308.000000	
85.060779	262.000000	
85.080501	322.000000	
85.100222	314.000000	
85.119943	294.000000	
85.139665	303.000000	
85.159386	340.000000	
85.179107	310.000000	
85.198829	305.000000	
85.218550	287.000000	
85.238272	329.000000	
85.257993	323.000000	
85.277714	310.000000	
85.297436	310.000000	
85.317157	288.000000	
85.336878	304.000000	
85.356600	371.000000	
85.376321	317.000000	
85.396042	298.000000	
85.415764	332.000000	
85.435485	308.000000	
85.455207	301.000000	
85.474928	290.000000	
85.494649	345.000000	
85.514371	305.000000	
85.534092	326.000000	
85.553813	338.000000	
85.573535	306.000000	
85.593256	312.000000	
85.612977	308.000000	
85.632699	295.000000	
85.652420	326.000000	
85.672142	294.000000	
85.691863	336.000000	
85.711584	316.000000	
85.731306	301.000000	
85.751027	295.000000	
85.770748	306.000000	
85.790470	327.000000	
85.810191	315.000000	
85.829912	298.000000	
85.849634	327.000000	
85.869355	302.000000	
85.889077	311.000000	
85.908798	305.000000	
85.928519	310.000000	
85.948241	282.000000	
85.967962	290.000000	
85.987683	315.000000	
86.007405	336.000000	
86.027126	311.000000	
86.046848	314.000000	
86.066569	323.000000	
86.086290	334.000000	
86.106012	317.000000	
86.125733	324.000000	
86.145454	285.000000	
86.165176	337.000000	
86.184897	320.000000	
86.204618	323.000000	
86.224340	316.000000	
86.244061	315.000000	
86.263783	278.000000	
86.283504	319.000000	
86.303225	286.000000	
86.322947	330.000000	
86.342668	316.000000	
86.362389	353.000000	
86.382111	318.000000	
86.401832	297.000000	
86.421553	286.000000	
86.441275	316.000000	
86.460996	345.000000	
86.480718	284.000000	
86.500439	305.000000	
86.520160	302.000000	
86.539882	314.000000	
86.559603	299.000000	
86.579324	330.000000	
86.599046	297.000000	
86.618767	323.000000	
86.638488	315.000000	
86.658210	310.000000	
86.677931	294.000000	
86.697653	300.000000	
86.717374	291.000000	
86.737095	293.000000	
86.756817	320.000000	
86.776538	313.000000	
86.796259	330.000000	
86.815981	297.000000	
86.835702	325.000000	
86.855423	302.000000	
86.875145	312.000000	
86.894866	323.000000	
86.914588	285.000000	
86.934309	325.000000	
86.954030	341.000000	
86.973752	326.000000	
86.993473	308.000000	
87.013194	362.000000	
87.032916	272.000000	
87.052637	353.000000	
87.072358	330.000000	
87.092080	297.000000	
87.111801	320.000000	
87.131523	288.000000	
87.151244	268.000000	
87.170965	319.000000	
87.190687	340.000000	
87.210408	300.000000	
87.230129	317.000000	
87.249851	303.000000	
87.269572	288.000000	
87.289293	312.000000	
87.309015	266.000000	
87.328736	314.000000	
87.348458	312.000000	
87.368179	326.000000	
87.387900	335.000000	
87.407622	284.000000	
87.427343	302.000000	
87.447064	311.000000	
87.466786	333.000000	
87.486507	297.000000	
87.506228	306.000000	
87.525950	289.000000	
87.545671	334.000000	
87.565393	334.000000	
87.585114	299.000000	
87.604835	318.000000	
87.624557	298.000000	
87.644278	286.000000	
87.663999	306.000000	
87.683721	329.000000	
87.703442	328.000000	
87.723163	326.000000	
87.742885	288.000000	
87.762606	299.000000	
87.782328	324.000000	
87.802049	302.000000	
87.821770	300.000000	
87.841492	300.000000	
87.861213	283.000000	
87.880934	344.000000	
87.900656	282.000000	
87.920377	311.000000	
87.940098	323.000000	
87.959820	302.000000	
87.979541	326.000000	
87.999263	311.000000	
88.018984	307.000000	
88.038705	302.000000	
88.058427	304.000000	
88.078148	336.000000	
88.097869	289.000000	
88.117591	313.000000	
88.137312	335.000000	
88.157033	284.000000	
88.176755	342.000000	
88.196476	302.000000	
88.216198	342.000000	
88.235919	320.000000	
88.255640	293.000000	
88.275362	346.000000	
88.295083	334.000000	
88.314804	338.000000	
88.334526	295.000000	
88.354247	288.000000	
88.373968	266.000000	
88.393690	309.000000	
88.413411	324.000000	
88.433133	303.000000	
88.452854	310.000000	
88.472575	316.000000	
88.492297	357.000000	
88.512018	300.000000	
88.531739	267.000000	
88.551461	285.000000	
88.571182	329.000000	
88.590903	330.000000	
88.610625	293.000000	
88.630346	308.000000	
88.650068	322.000000	
88.669789	293.000000	
88.689510	324.000000	
88.709232	283.000000	
88.728953	312.000000	
88.748674	322.000000	
88.768396	270.000000	
88.788117	266.000000	
88.807838	303.000000	
88.827560	299.000000	
88.847281	280.000000	
88.867003	300.000000	
88.886724	311.000000	
88.906445	347.000000	
88.926167	310.000000	
88.945888	334.000000	
88.965609	320.000000	
88.985331	282.000000	
89.005052	252.000000	
89.024773	260.000000	
89.044495	303.000000	
89.064216	292.000000	
89.083938	307.000000	
89.103659	312.000000	
89.123380	318.000000	
89.143102	322.000000	
89.162823	308.000000	
89.182544	304.000000	
89.202266	300.000000	
89.221987	333.000000	
89.241708	291.000000	
89.261430	330.000000	
89.281151	294.000000	
89.300873	328.000000	
89.320594	306.000000	
89.340315	331.000000	
89.360037	305.000000	
89.379758	315.000000	
89.399479	314.000000	
89.419201	290.000000	
89.438922	300.000000	
89.458643	295.000000	
89.478365	312.000000	
89.498086	320.000000	
89.517808	312.000000	
89.537529	356.000000	
89.557250	302.000000	
89.576972	328.000000	
89.596693	300.000000	
89.616414	331.000000	
89.636136	323.000000	
89.655857	301.000000	
89.675578	297.000000	
89.695300	306.000000	
89.715021	295.000000	
89.734743	313.000000	
89.754464	322.000000	
89.774185	303.000000	
89.793907	291.000000	
89.813628	311.000000	
89.833349	306.000000	
89.853071	294.000000	
89.872792	320.000000	
89.892513	304.000000	
89.912235	330.000000	
89.931956	311.000000	
89.951678	345.000000	
89.971399	301.000000	
89.991120	292.000000	
